"trial_type","trial_index","time_elapsed","internal_node_id","rt","stimulus","key_press","success","button_pressed","left_right_s1","left_right_s2","reward_s1","reward_s2"
"pavlovia","0","4","0.0-0.0","","","","","","","","",""
"html-keyboard-response","1","4935","0.0-1.0","4930.045000000973","<p><span style='font-size:20pt;'>実験にお越しいただき，ありがとうございます!!!</span></p><p>キーボードのキーをどれか押して，開始してください</p>","32","","","","","",""
"fullscreen","2","7499","0.0-2.0","","","","true","","","","",""
"html-keyboard-response","3","8727","0.0-3.0","1226.715000004333","<p style='text-align:left'>画面に２つの図形がでてきますので，どちらかの図形を選択してください。</p><p style='text-align'>あなたの選択に対して，ポジティブな反応（緑色の笑顔）かネガティブな反応（赤色の悲しい顔）が出ます。</p><p style='text-align:left'>一方の図形はポジティブな反応が出やすく，もう一方はそうではありません。</p><p style='text-align:left'>できるだけ，ポジティブな反応が得られるように，選択をしてください。</p><p style='text-align:left'>図形の選択はマウスを使って行ってください</p><p style='text-align:left'>なお，図形とそれに対する反応との関係は途中で変わることがあります。</p><p style='text-align:left'>また，図形の出る位置（左右）は頻繁に変わります。</p><p style='text-align:left'>準備ができましたら，キーボードのキーを押して始めてください。</p>","32","","","","","",""
"html-button-response","4","11352","0.0-4.0-0.0","1622.6349999997183","","","","1","1","2","1","1"
"html-keyboard-response","5","11853","0.0-4.0-1.0","null","<p style='position: absolute; top: 40%;left: 20%'><img src='img/s1.jpeg' width='200px'/></p> <p style='position: absolute; top: 40%;right: 20%'><img src='img/s2s.jpeg' width='200px'/></p>","null","","","","","",""
"html-keyboard-response","6","12858","0.0-4.0-2.0","null","<p style='position: absolute; top: 40%;left: 20%'><img src='img/s1.jpeg' width='200px'/></p> <p style='position: absolute; top: 40%;right: 20%'><img src='img/s2s.jpeg' width='200px'/></p> <p style='position: absolute; top: 40%;right: 45%'><img src='img/reward.jpeg' width='200px'/></p>","null","","","","","",""
"html-keyboard-response","7","14236","0.0-4.0-3.0","null","<p style=""font-size: 48px"">+</p>","null","","","","","",""
"html-button-response","8","14892","0.0-4.0-0.1","654.3650000021444","","","","1","1","2","1","0"
"html-keyboard-response","9","15394","0.0-4.0-1.1","null","<p style='position: absolute; top: 40%;left: 20%'><img src='img/s1.jpeg' width='200px'/></p> <p style='position: absolute; top: 40%;right: 20%'><img src='img/s2s.jpeg' width='200px'/></p>","null","","","","","",""
"html-keyboard-response","10","16397","0.0-4.0-2.1","null","<p style='position: absolute; top: 40%;left: 20%'><img src='img/s1.jpeg' width='200px'/></p> <p style='position: absolute; top: 40%;right: 20%'><img src='img/s2s.jpeg' width='200px'/></p> <p style='position: absolute; top: 40%;right: 45%'><img src='img/punishment.jpeg' width='200px'/></p>","null","","","","","",""
"html-keyboard-response","11","17497","0.0-4.0-3.1","null","<p style=""font-size: 48px"">+</p>","null","","","","","",""
"html-button-response","12","18418","0.0-4.0-0.2","919.915000005858","","","","0","2","1","1","1"
"html-keyboard-response","13","18923","0.0-4.0-1.2","null","<p style='position: absolute; top: 40%;right: 20%'><img src='img/s1s.jpeg' width='200px'/></p> <p style='position: absolute; top: 40%;left: 20%'><img src='img/s2.jpeg' width='200px'/></p>","null","","","","","",""
"html-keyboard-response","14","19927","0.0-4.0-2.2","null","<p style='position: absolute; top: 40%;right: 20%'><img src='img/s1s.jpeg' width='200px'/></p> <p style='position: absolute; top: 40%;left: 20%'><img src='img/s2.jpeg' width='200px'/></p> <p style='position: absolute; top: 40%;right: 45%'><img src='img/reward.jpeg' width='200px'/></p>","null","","","","","",""
"html-keyboard-response","15","21380","0.0-4.0-3.2","null","<p style=""font-size: 48px"">+</p>","null","","","","","",""
"html-button-response","16","21922","0.0-4.0-0.3","540.195000001404","","","","0","2","1","1","0"
"html-keyboard-response","17","22424","0.0-4.0-1.3","null","<p style='position: absolute; top: 40%;right: 20%'><img src='img/s1s.jpeg' width='200px'/></p> <p style='position: absolute; top: 40%;left: 20%'><img src='img/s2.jpeg' width='200px'/></p>","null","","","","","",""
"html-keyboard-response","18","23427","0.0-4.0-2.3","null","<p style='position: absolute; top: 40%;right: 20%'><img src='img/s1s.jpeg' width='200px'/></p> <p style='position: absolute; top: 40%;left: 20%'><img src='img/s2.jpeg' width='200px'/></p> <p style='position: absolute; top: 40%;right: 45%'><img src='img/reward.jpeg' width='200px'/></p>","null","","","","","",""
"html-keyboard-response","19","24382","0.0-4.0-3.3","null","<p style=""font-size: 48px"">+</p>","null","","","","","",""
"html-button-response","20","26004","0.0-4.0-0.4","1621.2999999988824","","","","0","1","2","1","0"
"html-keyboard-response","21","26510","0.0-4.0-1.4","null","<p style='position: absolute; top: 40%;left: 20%'><img src='img/s1s.jpeg' width='200px'/></p> <p style='position: absolute; top: 40%;right: 20%'><img src='img/s2.jpeg' width='200px'/></p>","null","","","","","",""
"html-keyboard-response","22","27516","0.0-4.0-2.4","null","<p style='position: absolute; top: 40%;left: 20%'><img src='img/s1s.jpeg' width='200px'/></p> <p style='position: absolute; top: 40%;right: 20%'><img src='img/s2.jpeg' width='200px'/></p> <p style='position: absolute; top: 40%;right: 45%'><img src='img/reward.jpeg' width='200px'/></p>","null","","","","","",""
"html-keyboard-response","23","28711","0.0-4.0-3.4","null","<p style=""font-size: 48px"">+</p>","null","","","","","",""
"html-button-response","24","29258","0.0-4.0-0.5","546.1799999975483","","","","0","2","1","1","0"
"html-keyboard-response","25","29764","0.0-4.0-1.5","null","<p style='position: absolute; top: 40%;right: 20%'><img src='img/s1s.jpeg' width='200px'/></p> <p style='position: absolute; top: 40%;left: 20%'><img src='img/s2.jpeg' width='200px'/></p>","null","","","","","",""
"html-keyboard-response","26","30769","0.0-4.0-2.5","null","<p style='position: absolute; top: 40%;right: 20%'><img src='img/s1s.jpeg' width='200px'/></p> <p style='position: absolute; top: 40%;left: 20%'><img src='img/s2.jpeg' width='200px'/></p> <p style='position: absolute; top: 40%;right: 45%'><img src='img/reward.jpeg' width='200px'/></p>","null","","","","","",""
"html-keyboard-response","27","31275","0.0-4.0-3.5","null","<p style=""font-size: 48px"">+</p>","null","","","","","",""
"html-button-response","28","32418","0.0-4.0-0.6","1141.474999996717","","","","0","1","2","1","0"
"html-keyboard-response","29","32920","0.0-4.0-1.6","null","<p style='position: absolute; top: 40%;left: 20%'><img src='img/s1s.jpeg' width='200px'/></p> <p style='position: absolute; top: 40%;right: 20%'><img src='img/s2.jpeg' width='200px'/></p>","null","","","","","",""
"html-keyboard-response","30","33922","0.0-4.0-2.6","null","<p style='position: absolute; top: 40%;left: 20%'><img src='img/s1s.jpeg' width='200px'/></p> <p style='position: absolute; top: 40%;right: 20%'><img src='img/s2.jpeg' width='200px'/></p> <p style='position: absolute; top: 40%;right: 45%'><img src='img/reward.jpeg' width='200px'/></p>","null","","","","","",""
"html-keyboard-response","31","35080","0.0-4.0-3.6","null","<p style=""font-size: 48px"">+</p>","null","","","","","",""
"html-button-response","32","36126","0.0-4.0-0.7","1044.8050000049989","","","","0","2","1","1","0"
"html-keyboard-response","33","36630","0.0-4.0-1.7","null","<p style='position: absolute; top: 40%;right: 20%'><img src='img/s1s.jpeg' width='200px'/></p> <p style='position: absolute; top: 40%;left: 20%'><img src='img/s2.jpeg' width='200px'/></p>","null","","","","","",""
"html-keyboard-response","34","37631","0.0-4.0-2.7","null","<p style='position: absolute; top: 40%;right: 20%'><img src='img/s1s.jpeg' width='200px'/></p> <p style='position: absolute; top: 40%;left: 20%'><img src='img/s2.jpeg' width='200px'/></p> <p style='position: absolute; top: 40%;right: 45%'><img src='img/reward.jpeg' width='200px'/></p>","null","","","","","",""
"html-keyboard-response","35","38634","0.0-4.0-3.7","null","<p style=""font-size: 48px"">+</p>","null","","","","","",""
"html-button-response","36","39598","0.0-4.0-0.8","962.084999999206","","","","0","1","2","0","0"
"html-keyboard-response","37","40099","0.0-4.0-1.8","null","<p style='position: absolute; top: 40%;left: 20%'><img src='img/s1s.jpeg' width='200px'/></p> <p style='position: absolute; top: 40%;right: 20%'><img src='img/s2.jpeg' width='200px'/></p>","null","","","","","",""
"html-keyboard-response","38","41101","0.0-4.0-2.8","null","<p style='position: absolute; top: 40%;left: 20%'><img src='img/s1s.jpeg' width='200px'/></p> <p style='position: absolute; top: 40%;right: 20%'><img src='img/s2.jpeg' width='200px'/></p> <p style='position: absolute; top: 40%;right: 45%'><img src='img/punishment.jpeg' width='200px'/></p>","null","","","","","",""
"html-keyboard-response","39","41895","0.0-4.0-3.8","null","<p style=""font-size: 48px"">+</p>","null","","","","","",""
"html-button-response","40","43004","0.0-4.0-0.9","1108.0799999981537","","","","1","2","1","0","0"
"html-keyboard-response","41","43508","0.0-4.0-1.9","null","<p style='position: absolute; top: 40%;right: 20%'><img src='img/s1.jpeg' width='200px'/></p> <p style='position: absolute; top: 40%;left: 20%'><img src='img/s2s.jpeg' width='200px'/></p>","null","","","","","",""
"html-keyboard-response","42","44511","0.0-4.0-2.9","null","<p style='position: absolute; top: 40%;right: 20%'><img src='img/s1.jpeg' width='200px'/></p> <p style='position: absolute; top: 40%;left: 20%'><img src='img/s2s.jpeg' width='200px'/></p> <p style='position: absolute; top: 40%;right: 45%'><img src='img/reward.jpeg' width='200px'/></p>","null","","","","","",""
"html-keyboard-response","43","45973","0.0-4.0-3.9","null","<p style=""font-size: 48px"">+</p>","null","","","","","",""
"html-button-response","44","46430","0.0-4.0-0.10","456.14999999816064","","","","1","1","2","1","0"
"html-keyboard-response","45","46936","0.0-4.0-1.10","null","<p style='position: absolute; top: 40%;left: 20%'><img src='img/s1.jpeg' width='200px'/></p> <p style='position: absolute; top: 40%;right: 20%'><img src='img/s2s.jpeg' width='200px'/></p>","null","","","","","",""
"html-keyboard-response","46","47938","0.0-4.0-2.10","null","<p style='position: absolute; top: 40%;left: 20%'><img src='img/s1.jpeg' width='200px'/></p> <p style='position: absolute; top: 40%;right: 20%'><img src='img/s2s.jpeg' width='200px'/></p> <p style='position: absolute; top: 40%;right: 45%'><img src='img/punishment.jpeg' width='200px'/></p>","null","","","","","",""
"html-keyboard-response","47","48457","0.0-4.0-3.10","null","<p style=""font-size: 48px"">+</p>","null","","","","","",""
"html-button-response","48","49656","0.0-4.0-0.11","1197.7750000005472","","","","0","1","2","1","1"
"html-keyboard-response","49","50162","0.0-4.0-1.11","null","<p style='position: absolute; top: 40%;left: 20%'><img src='img/s1s.jpeg' width='200px'/></p> <p style='position: absolute; top: 40%;right: 20%'><img src='img/s2.jpeg' width='200px'/></p>","null","","","","","",""
"html-keyboard-response","50","51164","0.0-4.0-2.11","null","<p style='position: absolute; top: 40%;left: 20%'><img src='img/s1s.jpeg' width='200px'/></p> <p style='position: absolute; top: 40%;right: 20%'><img src='img/s2.jpeg' width='200px'/></p> <p style='position: absolute; top: 40%;right: 45%'><img src='img/reward.jpeg' width='200px'/></p>","null","","","","","",""
"html-keyboard-response","51","52537","0.0-4.0-3.11","null","<p style=""font-size: 48px"">+</p>","null","","","","","",""
"html-button-response","52","53054","0.0-4.0-0.12","515.3300000019954","","","","0","1","2","1","0"
"html-keyboard-response","53","53558","0.0-4.0-1.12","null","<p style='position: absolute; top: 40%;left: 20%'><img src='img/s1s.jpeg' width='200px'/></p> <p style='position: absolute; top: 40%;right: 20%'><img src='img/s2.jpeg' width='200px'/></p>","null","","","","","",""
"html-keyboard-response","54","54561","0.0-4.0-2.12","null","<p style='position: absolute; top: 40%;left: 20%'><img src='img/s1s.jpeg' width='200px'/></p> <p style='position: absolute; top: 40%;right: 20%'><img src='img/s2.jpeg' width='200px'/></p> <p style='position: absolute; top: 40%;right: 45%'><img src='img/reward.jpeg' width='200px'/></p>","null","","","","","",""
"html-keyboard-response","55","55639","0.0-4.0-3.12","null","<p style=""font-size: 48px"">+</p>","null","","","","","",""
"html-button-response","56","56786","0.0-4.0-0.13","1146.565000002738","","","","0","2","1","1","0"
"html-keyboard-response","57","57290","0.0-4.0-1.13","null","<p style='position: absolute; top: 40%;right: 20%'><img src='img/s1s.jpeg' width='200px'/></p> <p style='position: absolute; top: 40%;left: 20%'><img src='img/s2.jpeg' width='200px'/></p>","null","","","","","",""
"html-keyboard-response","58","58291","0.0-4.0-2.13","null","<p style='position: absolute; top: 40%;right: 20%'><img src='img/s1s.jpeg' width='200px'/></p> <p style='position: absolute; top: 40%;left: 20%'><img src='img/s2.jpeg' width='200px'/></p> <p style='position: absolute; top: 40%;right: 45%'><img src='img/reward.jpeg' width='200px'/></p>","null","","","","","",""
"html-keyboard-response","59","59385","0.0-4.0-3.13","null","<p style=""font-size: 48px"">+</p>","null","","","","","",""
"html-button-response","60","59934","0.0-4.0-0.14","547.5049999949988","","","","0","2","1","1","1"
"html-keyboard-response","61","60438","0.0-4.0-1.14","null","<p style='position: absolute; top: 40%;right: 20%'><img src='img/s1s.jpeg' width='200px'/></p> <p style='position: absolute; top: 40%;left: 20%'><img src='img/s2.jpeg' width='200px'/></p>","null","","","","","",""
"html-keyboard-response","62","61439","0.0-4.0-2.14","null","<p style='position: absolute; top: 40%;right: 20%'><img src='img/s1s.jpeg' width='200px'/></p> <p style='position: absolute; top: 40%;left: 20%'><img src='img/s2.jpeg' width='200px'/></p> <p style='position: absolute; top: 40%;right: 45%'><img src='img/reward.jpeg' width='200px'/></p>","null","","","","","",""
"html-keyboard-response","63","62384","0.0-4.0-3.14","null","<p style=""font-size: 48px"">+</p>","null","","","","","",""
"html-button-response","64","63768","0.0-4.0-0.15","1382.7600000004168","","","","0","2","1","0","0"
"html-keyboard-response","65","64269","0.0-4.0-1.15","null","<p style='position: absolute; top: 40%;right: 20%'><img src='img/s1s.jpeg' width='200px'/></p> <p style='position: absolute; top: 40%;left: 20%'><img src='img/s2.jpeg' width='200px'/></p>","null","","","","","",""
"html-keyboard-response","66","65275","0.0-4.0-2.15","null","<p style='position: absolute; top: 40%;right: 20%'><img src='img/s1s.jpeg' width='200px'/></p> <p style='position: absolute; top: 40%;left: 20%'><img src='img/s2.jpeg' width='200px'/></p> <p style='position: absolute; top: 40%;right: 45%'><img src='img/punishment.jpeg' width='200px'/></p>","null","","","","","",""
"html-keyboard-response","67","66178","0.0-4.0-3.15","null","<p style=""font-size: 48px"">+</p>","null","","","","","",""
"html-button-response","68","66794","0.0-4.0-0.16","614.2650000037975","","","","1","1","2","1","0"
"html-keyboard-response","69","67297","0.0-4.0-1.16","null","<p style='position: absolute; top: 40%;left: 20%'><img src='img/s1.jpeg' width='200px'/></p> <p style='position: absolute; top: 40%;right: 20%'><img src='img/s2s.jpeg' width='200px'/></p>","null","","","","","",""
"html-keyboard-response","70","68298","0.0-4.0-2.16","null","<p style='position: absolute; top: 40%;left: 20%'><img src='img/s1.jpeg' width='200px'/></p> <p style='position: absolute; top: 40%;right: 20%'><img src='img/s2s.jpeg' width='200px'/></p> <p style='position: absolute; top: 40%;right: 45%'><img src='img/punishment.jpeg' width='200px'/></p>","null","","","","","",""
"html-keyboard-response","71","69797","0.0-4.0-3.16","null","<p style=""font-size: 48px"">+</p>","null","","","","","",""
"html-button-response","72","71060","0.0-4.0-0.17","1262.1950000029756","","","","0","1","2","1","0"
"html-keyboard-response","73","71564","0.0-4.0-1.17","null","<p style='position: absolute; top: 40%;left: 20%'><img src='img/s1s.jpeg' width='200px'/></p> <p style='position: absolute; top: 40%;right: 20%'><img src='img/s2.jpeg' width='200px'/></p>","null","","","","","",""
"html-keyboard-response","74","72565","0.0-4.0-2.17","null","<p style='position: absolute; top: 40%;left: 20%'><img src='img/s1s.jpeg' width='200px'/></p> <p style='position: absolute; top: 40%;right: 20%'><img src='img/s2.jpeg' width='200px'/></p> <p style='position: absolute; top: 40%;right: 45%'><img src='img/reward.jpeg' width='200px'/></p>","null","","","","","",""
"html-keyboard-response","75","73118","0.0-4.0-3.17","null","<p style=""font-size: 48px"">+</p>","null","","","","","",""
"html-button-response","76","74394","0.0-4.0-0.18","1274.9899999980698","","","","0","2","1","0","0"
"html-keyboard-response","77","74897","0.0-4.0-1.18","null","<p style='position: absolute; top: 40%;right: 20%'><img src='img/s1s.jpeg' width='200px'/></p> <p style='position: absolute; top: 40%;left: 20%'><img src='img/s2.jpeg' width='200px'/></p>","null","","","","","",""
"html-keyboard-response","78","75902","0.0-4.0-2.18","null","<p style='position: absolute; top: 40%;right: 20%'><img src='img/s1s.jpeg' width='200px'/></p> <p style='position: absolute; top: 40%;left: 20%'><img src='img/s2.jpeg' width='200px'/></p> <p style='position: absolute; top: 40%;right: 45%'><img src='img/punishment.jpeg' width='200px'/></p>","null","","","","","",""
"html-keyboard-response","79","77386","0.0-4.0-3.18","null","<p style=""font-size: 48px"">+</p>","null","","","","","",""
"html-button-response","80","78448","0.0-4.0-0.19","1060.685000004014","","","","1","2","1","1","0"
"html-keyboard-response","81","78952","0.0-4.0-1.19","null","<p style='position: absolute; top: 40%;right: 20%'><img src='img/s1.jpeg' width='200px'/></p> <p style='position: absolute; top: 40%;left: 20%'><img src='img/s2s.jpeg' width='200px'/></p>","null","","","","","",""
"html-keyboard-response","82","79954","0.0-4.0-2.19","null","<p style='position: absolute; top: 40%;right: 20%'><img src='img/s1.jpeg' width='200px'/></p> <p style='position: absolute; top: 40%;left: 20%'><img src='img/s2s.jpeg' width='200px'/></p> <p style='position: absolute; top: 40%;right: 45%'><img src='img/reward.jpeg' width='200px'/></p>","null","","","","","",""
"html-keyboard-response","83","80648","0.0-4.0-3.19","null","<p style=""font-size: 48px"">+</p>","null","","","","","",""
"html-button-response","84","81484","0.0-4.0-0.20","834.8800000021583","","","","0","2","1","1","0"
"html-keyboard-response","85","81985","0.0-4.0-1.20","null","<p style='position: absolute; top: 40%;right: 20%'><img src='img/s1s.jpeg' width='200px'/></p> <p style='position: absolute; top: 40%;left: 20%'><img src='img/s2.jpeg' width='200px'/></p>","null","","","","","",""
"html-keyboard-response","86","82989","0.0-4.0-2.20","null","<p style='position: absolute; top: 40%;right: 20%'><img src='img/s1s.jpeg' width='200px'/></p> <p style='position: absolute; top: 40%;left: 20%'><img src='img/s2.jpeg' width='200px'/></p> <p style='position: absolute; top: 40%;right: 45%'><img src='img/reward.jpeg' width='200px'/></p>","null","","","","","",""
"html-keyboard-response","87","83541","0.0-4.0-3.20","null","<p style=""font-size: 48px"">+</p>","null","","","","","",""
"html-button-response","88","84906","0.0-4.0-0.21","1364.3149999988964","","","","0","1","2","0","0"
"html-keyboard-response","89","85411","0.0-4.0-1.21","null","<p style='position: absolute; top: 40%;left: 20%'><img src='img/s1s.jpeg' width='200px'/></p> <p style='position: absolute; top: 40%;right: 20%'><img src='img/s2.jpeg' width='200px'/></p>","null","","","","","",""
"html-keyboard-response","90","86414","0.0-4.0-2.21","null","<p style='position: absolute; top: 40%;left: 20%'><img src='img/s1s.jpeg' width='200px'/></p> <p style='position: absolute; top: 40%;right: 20%'><img src='img/s2.jpeg' width='200px'/></p> <p style='position: absolute; top: 40%;right: 45%'><img src='img/punishment.jpeg' width='200px'/></p>","null","","","","","",""
"html-keyboard-response","91","87890","0.0-4.0-3.21","null","<p style=""font-size: 48px"">+</p>","null","","","","","",""
"html-button-response","92","88828","0.0-4.0-0.22","936.3100000045961","","","","1","2","1","1","0"
"html-keyboard-response","93","89330","0.0-4.0-1.22","null","<p style='position: absolute; top: 40%;right: 20%'><img src='img/s1.jpeg' width='200px'/></p> <p style='position: absolute; top: 40%;left: 20%'><img src='img/s2s.jpeg' width='200px'/></p>","null","","","","","",""
"html-keyboard-response","94","90332","0.0-4.0-2.22","null","<p style='position: absolute; top: 40%;right: 20%'><img src='img/s1.jpeg' width='200px'/></p> <p style='position: absolute; top: 40%;left: 20%'><img src='img/s2s.jpeg' width='200px'/></p> <p style='position: absolute; top: 40%;right: 45%'><img src='img/reward.jpeg' width='200px'/></p>","null","","","","","",""
"html-keyboard-response","95","91347","0.0-4.0-3.22","null","<p style=""font-size: 48px"">+</p>","null","","","","","",""
"html-button-response","96","91996","0.0-4.0-0.23","647.7650000015274","","","","1","1","2","1","0"
"html-keyboard-response","97","92497","0.0-4.0-1.23","null","<p style='position: absolute; top: 40%;left: 20%'><img src='img/s1.jpeg' width='200px'/></p> <p style='position: absolute; top: 40%;right: 20%'><img src='img/s2s.jpeg' width='200px'/></p>","null","","","","","",""
"html-keyboard-response","98","93502","0.0-4.0-2.23","null","<p style='position: absolute; top: 40%;left: 20%'><img src='img/s1.jpeg' width='200px'/></p> <p style='position: absolute; top: 40%;right: 20%'><img src='img/s2s.jpeg' width='200px'/></p> <p style='position: absolute; top: 40%;right: 45%'><img src='img/punishment.jpeg' width='200px'/></p>","null","","","","","",""
"html-keyboard-response","99","94493","0.0-4.0-3.23","null","<p style=""font-size: 48px"">+</p>","null","","","","","",""
"html-button-response","100","95008","0.0-4.0-0.24","513.7099999992643","","","","0","2","1","1","1"
"html-keyboard-response","101","95513","0.0-4.0-1.24","null","<p style='position: absolute; top: 40%;right: 20%'><img src='img/s1s.jpeg' width='200px'/></p> <p style='position: absolute; top: 40%;left: 20%'><img src='img/s2.jpeg' width='200px'/></p>","null","","","","","",""
"html-keyboard-response","102","96515","0.0-4.0-2.24","null","<p style='position: absolute; top: 40%;right: 20%'><img src='img/s1s.jpeg' width='200px'/></p> <p style='position: absolute; top: 40%;left: 20%'><img src='img/s2.jpeg' width='200px'/></p> <p style='position: absolute; top: 40%;right: 45%'><img src='img/reward.jpeg' width='200px'/></p>","null","","","","","",""
"html-keyboard-response","103","97398","0.0-4.0-3.24","null","<p style=""font-size: 48px"">+</p>","null","","","","","",""
"html-button-response","104","97866","0.0-4.0-0.25","466.8600000004517","","","","0","2","1","1","0"
"html-keyboard-response","105","98370","0.0-4.0-1.25","null","<p style='position: absolute; top: 40%;right: 20%'><img src='img/s1s.jpeg' width='200px'/></p> <p style='position: absolute; top: 40%;left: 20%'><img src='img/s2.jpeg' width='200px'/></p>","null","","","","","",""
"html-keyboard-response","106","99372","0.0-4.0-2.25","null","<p style='position: absolute; top: 40%;right: 20%'><img src='img/s1s.jpeg' width='200px'/></p> <p style='position: absolute; top: 40%;left: 20%'><img src='img/s2.jpeg' width='200px'/></p> <p style='position: absolute; top: 40%;right: 45%'><img src='img/reward.jpeg' width='200px'/></p>","null","","","","","",""
"html-keyboard-response","107","100222","0.0-4.0-3.25","null","<p style=""font-size: 48px"">+</p>","null","","","","","",""
"html-button-response","108","101816","0.0-4.0-0.26","1592.6399999952991","","","","0","1","2","1","0"
"html-keyboard-response","109","102321","0.0-4.0-1.26","null","<p style='position: absolute; top: 40%;left: 20%'><img src='img/s1s.jpeg' width='200px'/></p> <p style='position: absolute; top: 40%;right: 20%'><img src='img/s2.jpeg' width='200px'/></p>","null","","","","","",""
"html-keyboard-response","110","103327","0.0-4.0-2.26","null","<p style='position: absolute; top: 40%;left: 20%'><img src='img/s1s.jpeg' width='200px'/></p> <p style='position: absolute; top: 40%;right: 20%'><img src='img/s2.jpeg' width='200px'/></p> <p style='position: absolute; top: 40%;right: 45%'><img src='img/reward.jpeg' width='200px'/></p>","null","","","","","",""
"html-keyboard-response","111","103883","0.0-4.0-3.26","null","<p style=""font-size: 48px"">+</p>","null","","","","","",""
"html-button-response","112","104924","0.0-4.0-0.27","1040.0450000015553","","","","0","2","1","0","1"
"html-keyboard-response","113","105428","0.0-4.0-1.27","null","<p style='position: absolute; top: 40%;right: 20%'><img src='img/s1s.jpeg' width='200px'/></p> <p style='position: absolute; top: 40%;left: 20%'><img src='img/s2.jpeg' width='200px'/></p>","null","","","","","",""
"html-keyboard-response","114","106434","0.0-4.0-2.27","null","<p style='position: absolute; top: 40%;right: 20%'><img src='img/s1s.jpeg' width='200px'/></p> <p style='position: absolute; top: 40%;left: 20%'><img src='img/s2.jpeg' width='200px'/></p> <p style='position: absolute; top: 40%;right: 45%'><img src='img/punishment.jpeg' width='200px'/></p>","null","","","","","",""
"html-keyboard-response","115","107165","0.0-4.0-3.27","null","<p style=""font-size: 48px"">+</p>","null","","","","","",""
"html-button-response","116","108508","0.0-4.0-0.28","1341.9750000030035","","","","0","1","2","1","0"
"html-keyboard-response","117","109012","0.0-4.0-1.28","null","<p style='position: absolute; top: 40%;left: 20%'><img src='img/s1s.jpeg' width='200px'/></p> <p style='position: absolute; top: 40%;right: 20%'><img src='img/s2.jpeg' width='200px'/></p>","null","","","","","",""
"html-keyboard-response","118","110013","0.0-4.0-2.28","null","<p style='position: absolute; top: 40%;left: 20%'><img src='img/s1s.jpeg' width='200px'/></p> <p style='position: absolute; top: 40%;right: 20%'><img src='img/s2.jpeg' width='200px'/></p> <p style='position: absolute; top: 40%;right: 45%'><img src='img/reward.jpeg' width='200px'/></p>","null","","","","","",""
"html-keyboard-response","119","111450","0.0-4.0-3.28","null","<p style=""font-size: 48px"">+</p>","null","","","","","",""
"html-button-response","120","112466","0.0-4.0-0.29","1015.0250000006054","","","","0","1","2","1","0"
"html-keyboard-response","121","112967","0.0-4.0-1.29","null","<p style='position: absolute; top: 40%;left: 20%'><img src='img/s1s.jpeg' width='200px'/></p> <p style='position: absolute; top: 40%;right: 20%'><img src='img/s2.jpeg' width='200px'/></p>","null","","","","","",""
"html-keyboard-response","122","113970","0.0-4.0-2.29","null","<p style='position: absolute; top: 40%;left: 20%'><img src='img/s1s.jpeg' width='200px'/></p> <p style='position: absolute; top: 40%;right: 20%'><img src='img/s2.jpeg' width='200px'/></p> <p style='position: absolute; top: 40%;right: 45%'><img src='img/reward.jpeg' width='200px'/></p>","null","","","","","",""
"html-keyboard-response","123","114683","0.0-4.0-3.29","null","<p style=""font-size: 48px"">+</p>","null","","","","","",""
"html-button-response","124","115530","0.0-4.0-0.30","845.7500000004075","","","","0","2","1","1","0"
"html-keyboard-response","125","116031","0.0-4.0-1.30","null","<p style='position: absolute; top: 40%;right: 20%'><img src='img/s1s.jpeg' width='200px'/></p> <p style='position: absolute; top: 40%;left: 20%'><img src='img/s2.jpeg' width='200px'/></p>","null","","","","","",""
"html-keyboard-response","126","117034","0.0-4.0-2.30","null","<p style='position: absolute; top: 40%;right: 20%'><img src='img/s1s.jpeg' width='200px'/></p> <p style='position: absolute; top: 40%;left: 20%'><img src='img/s2.jpeg' width='200px'/></p> <p style='position: absolute; top: 40%;right: 45%'><img src='img/reward.jpeg' width='200px'/></p>","null","","","","","",""
"html-keyboard-response","127","118142","0.0-4.0-3.30","null","<p style=""font-size: 48px"">+</p>","null","","","","","",""
"html-button-response","128","118740","0.0-4.0-0.31","596.4850000018487","","","","0","2","1","1","0"
"html-keyboard-response","129","119245","0.0-4.0-1.31","null","<p style='position: absolute; top: 40%;right: 20%'><img src='img/s1s.jpeg' width='200px'/></p> <p style='position: absolute; top: 40%;left: 20%'><img src='img/s2.jpeg' width='200px'/></p>","null","","","","","",""
"html-keyboard-response","130","120250","0.0-4.0-2.31","null","<p style='position: absolute; top: 40%;right: 20%'><img src='img/s1s.jpeg' width='200px'/></p> <p style='position: absolute; top: 40%;left: 20%'><img src='img/s2.jpeg' width='200px'/></p> <p style='position: absolute; top: 40%;right: 45%'><img src='img/reward.jpeg' width='200px'/></p>","null","","","","","",""
"html-keyboard-response","131","121266","0.0-4.0-3.31","null","<p style=""font-size: 48px"">+</p>","null","","","","","",""
"html-button-response","132","122314","0.0-4.0-0.32","1047.0449999993434","","","","0","1","2","0","0"
"html-keyboard-response","133","122815","0.0-4.0-1.32","null","<p style='position: absolute; top: 40%;left: 20%'><img src='img/s1s.jpeg' width='200px'/></p> <p style='position: absolute; top: 40%;right: 20%'><img src='img/s2.jpeg' width='200px'/></p>","null","","","","","",""
"html-keyboard-response","134","123818","0.0-4.0-2.32","null","<p style='position: absolute; top: 40%;left: 20%'><img src='img/s1s.jpeg' width='200px'/></p> <p style='position: absolute; top: 40%;right: 20%'><img src='img/s2.jpeg' width='200px'/></p> <p style='position: absolute; top: 40%;right: 45%'><img src='img/punishment.jpeg' width='200px'/></p>","null","","","","","",""
"html-keyboard-response","135","124731","0.0-4.0-3.32","null","<p style=""font-size: 48px"">+</p>","null","","","","","",""
"html-button-response","136","125660","0.0-4.0-0.33","928.249999997206","","","","1","2","1","1","0"
"html-keyboard-response","137","126165","0.0-4.0-1.33","null","<p style='position: absolute; top: 40%;right: 20%'><img src='img/s1.jpeg' width='200px'/></p> <p style='position: absolute; top: 40%;left: 20%'><img src='img/s2s.jpeg' width='200px'/></p>","null","","","","","",""
"html-keyboard-response","138","127169","0.0-4.0-2.33","null","<p style='position: absolute; top: 40%;right: 20%'><img src='img/s1.jpeg' width='200px'/></p> <p style='position: absolute; top: 40%;left: 20%'><img src='img/s2s.jpeg' width='200px'/></p> <p style='position: absolute; top: 40%;right: 45%'><img src='img/reward.jpeg' width='200px'/></p>","null","","","","","",""
"html-keyboard-response","139","127681","0.0-4.0-3.33","null","<p style=""font-size: 48px"">+</p>","null","","","","","",""
"html-button-response","140","128422","0.0-4.0-0.34","740.4650000025867","","","","1","1","2","1","1"
"html-keyboard-response","141","128925","0.0-4.0-1.34","null","<p style='position: absolute; top: 40%;left: 20%'><img src='img/s1.jpeg' width='200px'/></p> <p style='position: absolute; top: 40%;right: 20%'><img src='img/s2s.jpeg' width='200px'/></p>","null","","","","","",""
"html-keyboard-response","142","129926","0.0-4.0-2.34","null","<p style='position: absolute; top: 40%;left: 20%'><img src='img/s1.jpeg' width='200px'/></p> <p style='position: absolute; top: 40%;right: 20%'><img src='img/s2s.jpeg' width='200px'/></p> <p style='position: absolute; top: 40%;right: 45%'><img src='img/reward.jpeg' width='200px'/></p>","null","","","","","",""
"html-keyboard-response","143","131102","0.0-4.0-3.34","null","<p style=""font-size: 48px"">+</p>","null","","","","","",""
"html-button-response","144","132130","0.0-4.0-0.35","1026.8799999976181","","","","1","2","1","1","0"
"html-keyboard-response","145","132631","0.0-4.0-1.35","null","<p style='position: absolute; top: 40%;right: 20%'><img src='img/s1.jpeg' width='200px'/></p> <p style='position: absolute; top: 40%;left: 20%'><img src='img/s2s.jpeg' width='200px'/></p>","null","","","","","",""
"html-keyboard-response","146","133635","0.0-4.0-2.35","null","<p style='position: absolute; top: 40%;right: 20%'><img src='img/s1.jpeg' width='200px'/></p> <p style='position: absolute; top: 40%;left: 20%'><img src='img/s2s.jpeg' width='200px'/></p> <p style='position: absolute; top: 40%;right: 45%'><img src='img/reward.jpeg' width='200px'/></p>","null","","","","","",""
"html-keyboard-response","147","134760","0.0-4.0-3.35","null","<p style=""font-size: 48px"">+</p>","null","","","","","",""
"html-button-response","148","135880","0.0-4.0-0.36","1118.6450000022887","","","","1","2","1","0","1"
"html-keyboard-response","149","136385","0.0-4.0-1.36","null","<p style='position: absolute; top: 40%;right: 20%'><img src='img/s1.jpeg' width='200px'/></p> <p style='position: absolute; top: 40%;left: 20%'><img src='img/s2s.jpeg' width='200px'/></p>","null","","","","","",""
"html-keyboard-response","150","137391","0.0-4.0-2.36","null","<p style='position: absolute; top: 40%;right: 20%'><img src='img/s1.jpeg' width='200px'/></p> <p style='position: absolute; top: 40%;left: 20%'><img src='img/s2s.jpeg' width='200px'/></p> <p style='position: absolute; top: 40%;right: 45%'><img src='img/punishment.jpeg' width='200px'/></p>","null","","","","","",""
"html-keyboard-response","151","138159","0.0-4.0-3.36","null","<p style=""font-size: 48px"">+</p>","null","","","","","",""
"html-button-response","152","139044","0.0-4.0-0.37","883.5550000003423","","","","0","1","2","1","0"
"html-keyboard-response","153","139545","0.0-4.0-1.37","null","<p style='position: absolute; top: 40%;left: 20%'><img src='img/s1s.jpeg' width='200px'/></p> <p style='position: absolute; top: 40%;right: 20%'><img src='img/s2.jpeg' width='200px'/></p>","null","","","","","",""
"html-keyboard-response","154","140549","0.0-4.0-2.37","null","<p style='position: absolute; top: 40%;left: 20%'><img src='img/s1s.jpeg' width='200px'/></p> <p style='position: absolute; top: 40%;right: 20%'><img src='img/s2.jpeg' width='200px'/></p> <p style='position: absolute; top: 40%;right: 45%'><img src='img/reward.jpeg' width='200px'/></p>","null","","","","","",""
"html-keyboard-response","155","141593","0.0-4.0-3.37","null","<p style=""font-size: 48px"">+</p>","null","","","","","",""
"html-button-response","156","142406","0.0-4.0-0.38","811.5399999951478","","","","0","1","2","1","0"
"html-keyboard-response","157","142910","0.0-4.0-1.38","null","<p style='position: absolute; top: 40%;left: 20%'><img src='img/s1s.jpeg' width='200px'/></p> <p style='position: absolute; top: 40%;right: 20%'><img src='img/s2.jpeg' width='200px'/></p>","null","","","","","",""
"html-keyboard-response","158","143913","0.0-4.0-2.38","null","<p style='position: absolute; top: 40%;left: 20%'><img src='img/s1s.jpeg' width='200px'/></p> <p style='position: absolute; top: 40%;right: 20%'><img src='img/s2.jpeg' width='200px'/></p> <p style='position: absolute; top: 40%;right: 45%'><img src='img/reward.jpeg' width='200px'/></p>","null","","","","","",""
"html-keyboard-response","159","144903","0.0-4.0-3.38","null","<p style=""font-size: 48px"">+</p>","null","","","","","",""
"html-button-response","160","145998","0.0-4.0-0.39","1093.524999996589","","","","0","1","2","1","0"
"html-keyboard-response","161","146503","0.0-4.0-1.39","null","<p style='position: absolute; top: 40%;left: 20%'><img src='img/s1s.jpeg' width='200px'/></p> <p style='position: absolute; top: 40%;right: 20%'><img src='img/s2.jpeg' width='200px'/></p>","null","","","","","",""
"html-keyboard-response","162","147508","0.0-4.0-2.39","null","<p style='position: absolute; top: 40%;left: 20%'><img src='img/s1s.jpeg' width='200px'/></p> <p style='position: absolute; top: 40%;right: 20%'><img src='img/s2.jpeg' width='200px'/></p> <p style='position: absolute; top: 40%;right: 45%'><img src='img/reward.jpeg' width='200px'/></p>","null","","","","","",""
"html-keyboard-response","163","148688","0.0-4.0-3.39","null","<p style=""font-size: 48px"">+</p>","null","","","","","",""
"html-button-response","164","149784","0.0-4.0-0.40","1094.9600000021746","","","","0","2","1","1","1"
"html-keyboard-response","165","150290","0.0-4.0-1.40","null","<p style='position: absolute; top: 40%;right: 20%'><img src='img/s1s.jpeg' width='200px'/></p> <p style='position: absolute; top: 40%;left: 20%'><img src='img/s2.jpeg' width='200px'/></p>","null","","","","","",""
"html-keyboard-response","166","151293","0.0-4.0-2.40","null","<p style='position: absolute; top: 40%;right: 20%'><img src='img/s1s.jpeg' width='200px'/></p> <p style='position: absolute; top: 40%;left: 20%'><img src='img/s2.jpeg' width='200px'/></p> <p style='position: absolute; top: 40%;right: 45%'><img src='img/reward.jpeg' width='200px'/></p>","null","","","","","",""
"html-keyboard-response","167","152071","0.0-4.0-3.40","null","<p style=""font-size: 48px"">+</p>","null","","","","","",""
"html-button-response","168","152988","0.0-4.0-0.41","916.3550000012037","","","","0","1","2","0","1"
"html-keyboard-response","169","153491","0.0-4.0-1.41","null","<p style='position: absolute; top: 40%;left: 20%'><img src='img/s1s.jpeg' width='200px'/></p> <p style='position: absolute; top: 40%;right: 20%'><img src='img/s2.jpeg' width='200px'/></p>","null","","","","","",""
"html-keyboard-response","170","154494","0.0-4.0-2.41","null","<p style='position: absolute; top: 40%;left: 20%'><img src='img/s1s.jpeg' width='200px'/></p> <p style='position: absolute; top: 40%;right: 20%'><img src='img/s2.jpeg' width='200px'/></p> <p style='position: absolute; top: 40%;right: 45%'><img src='img/punishment.jpeg' width='200px'/></p>","null","","","","","",""
"html-keyboard-response","171","155540","0.0-4.0-3.41","null","<p style=""font-size: 48px"">+</p>","null","","","","","",""
"html-button-response","172","156326","0.0-4.0-0.42","784.9399999977322","","","","0","1","2","0","1"
"html-keyboard-response","173","156830","0.0-4.0-1.42","null","<p style='position: absolute; top: 40%;left: 20%'><img src='img/s1s.jpeg' width='200px'/></p> <p style='position: absolute; top: 40%;right: 20%'><img src='img/s2.jpeg' width='200px'/></p>","null","","","","","",""
"html-keyboard-response","174","157834","0.0-4.0-2.42","null","<p style='position: absolute; top: 40%;left: 20%'><img src='img/s1s.jpeg' width='200px'/></p> <p style='position: absolute; top: 40%;right: 20%'><img src='img/s2.jpeg' width='200px'/></p> <p style='position: absolute; top: 40%;right: 45%'><img src='img/punishment.jpeg' width='200px'/></p>","null","","","","","",""
"html-keyboard-response","175","158839","0.0-4.0-3.42","null","<p style=""font-size: 48px"">+</p>","null","","","","","",""
"html-button-response","176","160138","0.0-4.0-0.43","1297.6650000055088","","","","1","1","2","0","1"
"html-keyboard-response","177","160641","0.0-4.0-1.43","null","<p style='position: absolute; top: 40%;left: 20%'><img src='img/s1.jpeg' width='200px'/></p> <p style='position: absolute; top: 40%;right: 20%'><img src='img/s2s.jpeg' width='200px'/></p>","null","","","","","",""
"html-keyboard-response","178","161645","0.0-4.0-2.43","null","<p style='position: absolute; top: 40%;left: 20%'><img src='img/s1.jpeg' width='200px'/></p> <p style='position: absolute; top: 40%;right: 20%'><img src='img/s2s.jpeg' width='200px'/></p> <p style='position: absolute; top: 40%;right: 45%'><img src='img/reward.jpeg' width='200px'/></p>","null","","","","","",""
"html-keyboard-response","179","162438","0.0-4.0-3.43","null","<p style=""font-size: 48px"">+</p>","null","","","","","",""
"html-button-response","180","163686","0.0-4.0-0.44","1246.9850000052247","","","","1","2","1","0","0"
"html-keyboard-response","181","164189","0.0-4.0-1.44","null","<p style='position: absolute; top: 40%;right: 20%'><img src='img/s1.jpeg' width='200px'/></p> <p style='position: absolute; top: 40%;left: 20%'><img src='img/s2s.jpeg' width='200px'/></p>","null","","","","","",""
"html-keyboard-response","182","165193","0.0-4.0-2.44","null","<p style='position: absolute; top: 40%;right: 20%'><img src='img/s1.jpeg' width='200px'/></p> <p style='position: absolute; top: 40%;left: 20%'><img src='img/s2s.jpeg' width='200px'/></p> <p style='position: absolute; top: 40%;right: 45%'><img src='img/reward.jpeg' width='200px'/></p>","null","","","","","",""
"html-keyboard-response","183","166583","0.0-4.0-3.44","null","<p style=""font-size: 48px"">+</p>","null","","","","","",""
"html-button-response","184","167544","0.0-4.0-0.45","959.9700000035227","","","","1","2","1","0","1"
"html-keyboard-response","185","168047","0.0-4.0-1.45","null","<p style='position: absolute; top: 40%;right: 20%'><img src='img/s1.jpeg' width='200px'/></p> <p style='position: absolute; top: 40%;left: 20%'><img src='img/s2s.jpeg' width='200px'/></p>","null","","","","","",""
"html-keyboard-response","186","169050","0.0-4.0-2.45","null","<p style='position: absolute; top: 40%;right: 20%'><img src='img/s1.jpeg' width='200px'/></p> <p style='position: absolute; top: 40%;left: 20%'><img src='img/s2s.jpeg' width='200px'/></p> <p style='position: absolute; top: 40%;right: 45%'><img src='img/punishment.jpeg' width='200px'/></p>","null","","","","","",""
"html-keyboard-response","187","169571","0.0-4.0-3.45","null","<p style=""font-size: 48px"">+</p>","null","","","","","",""
"html-button-response","188","170322","0.0-4.0-0.46","749.7650000004796","","","","1","2","1","1","0"
"html-keyboard-response","189","170824","0.0-4.0-1.46","null","<p style='position: absolute; top: 40%;right: 20%'><img src='img/s1.jpeg' width='200px'/></p> <p style='position: absolute; top: 40%;left: 20%'><img src='img/s2s.jpeg' width='200px'/></p>","null","","","","","",""
"html-keyboard-response","190","171827","0.0-4.0-2.46","null","<p style='position: absolute; top: 40%;right: 20%'><img src='img/s1.jpeg' width='200px'/></p> <p style='position: absolute; top: 40%;left: 20%'><img src='img/s2s.jpeg' width='200px'/></p> <p style='position: absolute; top: 40%;right: 45%'><img src='img/reward.jpeg' width='200px'/></p>","null","","","","","",""
"html-keyboard-response","191","172591","0.0-4.0-3.46","null","<p style=""font-size: 48px"">+</p>","null","","","","","",""
"html-button-response","192","174252","0.0-4.0-0.47","1660.200000005716","","","","1","1","2","0","1"
"html-keyboard-response","193","174758","0.0-4.0-1.47","null","<p style='position: absolute; top: 40%;left: 20%'><img src='img/s1.jpeg' width='200px'/></p> <p style='position: absolute; top: 40%;right: 20%'><img src='img/s2s.jpeg' width='200px'/></p>","null","","","","","",""
"html-keyboard-response","194","175760","0.0-4.0-2.47","null","<p style='position: absolute; top: 40%;left: 20%'><img src='img/s1.jpeg' width='200px'/></p> <p style='position: absolute; top: 40%;right: 20%'><img src='img/s2s.jpeg' width='200px'/></p> <p style='position: absolute; top: 40%;right: 45%'><img src='img/reward.jpeg' width='200px'/></p>","null","","","","","",""
"html-keyboard-response","195","176292","0.0-4.0-3.47","null","<p style=""font-size: 48px"">+</p>","null","","","","","",""
"html-button-response","196","177228","0.0-4.0-0.48","934.8549999995157","","","","1","2","1","0","1"
"html-keyboard-response","197","177730","0.0-4.0-1.48","null","<p style='position: absolute; top: 40%;right: 20%'><img src='img/s1.jpeg' width='200px'/></p> <p style='position: absolute; top: 40%;left: 20%'><img src='img/s2s.jpeg' width='200px'/></p>","null","","","","","",""
"html-keyboard-response","198","178735","0.0-4.0-2.48","null","<p style='position: absolute; top: 40%;right: 20%'><img src='img/s1.jpeg' width='200px'/></p> <p style='position: absolute; top: 40%;left: 20%'><img src='img/s2s.jpeg' width='200px'/></p> <p style='position: absolute; top: 40%;right: 45%'><img src='img/punishment.jpeg' width='200px'/></p>","null","","","","","",""
"html-keyboard-response","199","179708","0.0-4.0-3.48","null","<p style=""font-size: 48px"">+</p>","null","","","","","",""
"html-button-response","200","180280","0.0-4.0-0.49","571.6499999980442","","","","1","1","2","0","1"
"html-keyboard-response","201","180781","0.0-4.0-1.49","null","<p style='position: absolute; top: 40%;left: 20%'><img src='img/s1.jpeg' width='200px'/></p> <p style='position: absolute; top: 40%;right: 20%'><img src='img/s2s.jpeg' width='200px'/></p>","null","","","","","",""
"html-keyboard-response","202","181787","0.0-4.0-2.49","null","<p style='position: absolute; top: 40%;left: 20%'><img src='img/s1.jpeg' width='200px'/></p> <p style='position: absolute; top: 40%;right: 20%'><img src='img/s2s.jpeg' width='200px'/></p> <p style='position: absolute; top: 40%;right: 45%'><img src='img/reward.jpeg' width='200px'/></p>","null","","","","","",""
"html-keyboard-response","203","182385","0.0-4.0-3.49","null","<p style=""font-size: 48px"">+</p>","null","","","","","",""
"html-button-response","204","183400","0.0-4.0-0.50","1014.4249999939348","","","","1","2","1","0","0"
"html-keyboard-response","205","183902","0.0-4.0-1.50","null","<p style='position: absolute; top: 40%;right: 20%'><img src='img/s1.jpeg' width='200px'/></p> <p style='position: absolute; top: 40%;left: 20%'><img src='img/s2s.jpeg' width='200px'/></p>","null","","","","","",""
"html-keyboard-response","206","184905","0.0-4.0-2.50","null","<p style='position: absolute; top: 40%;right: 20%'><img src='img/s1.jpeg' width='200px'/></p> <p style='position: absolute; top: 40%;left: 20%'><img src='img/s2s.jpeg' width='200px'/></p> <p style='position: absolute; top: 40%;right: 45%'><img src='img/reward.jpeg' width='200px'/></p>","null","","","","","",""
"html-keyboard-response","207","185847","0.0-4.0-3.50","null","<p style=""font-size: 48px"">+</p>","null","","","","","",""
"html-button-response","208","186444","0.0-4.0-0.51","596.5999999971245","","","","1","1","2","1","1"
"html-keyboard-response","209","186947","0.0-4.0-1.51","null","<p style='position: absolute; top: 40%;left: 20%'><img src='img/s1.jpeg' width='200px'/></p> <p style='position: absolute; top: 40%;right: 20%'><img src='img/s2s.jpeg' width='200px'/></p>","null","","","","","",""
"html-keyboard-response","210","187951","0.0-4.0-2.51","null","<p style='position: absolute; top: 40%;left: 20%'><img src='img/s1.jpeg' width='200px'/></p> <p style='position: absolute; top: 40%;right: 20%'><img src='img/s2s.jpeg' width='200px'/></p> <p style='position: absolute; top: 40%;right: 45%'><img src='img/reward.jpeg' width='200px'/></p>","null","","","","","",""
"html-keyboard-response","211","189116","0.0-4.0-3.51","null","<p style=""font-size: 48px"">+</p>","null","","","","","",""
"html-button-response","212","189694","0.0-4.0-0.52","576.6050000020186","","","","1","1","2","0","1"
"html-keyboard-response","213","190197","0.0-4.0-1.52","null","<p style='position: absolute; top: 40%;left: 20%'><img src='img/s1.jpeg' width='200px'/></p> <p style='position: absolute; top: 40%;right: 20%'><img src='img/s2s.jpeg' width='200px'/></p>","null","","","","","",""
"html-keyboard-response","214","191200","0.0-4.0-2.52","null","<p style='position: absolute; top: 40%;left: 20%'><img src='img/s1.jpeg' width='200px'/></p> <p style='position: absolute; top: 40%;right: 20%'><img src='img/s2s.jpeg' width='200px'/></p> <p style='position: absolute; top: 40%;right: 45%'><img src='img/reward.jpeg' width='200px'/></p>","null","","","","","",""
"html-keyboard-response","215","192655","0.0-4.0-3.52","null","<p style=""font-size: 48px"">+</p>","null","","","","","",""
"html-button-response","216","193204","0.0-4.0-0.53","548.4550000037416","","","","1","1","2","1","1"
"html-keyboard-response","217","193705","0.0-4.0-1.53","null","<p style='position: absolute; top: 40%;left: 20%'><img src='img/s1.jpeg' width='200px'/></p> <p style='position: absolute; top: 40%;right: 20%'><img src='img/s2s.jpeg' width='200px'/></p>","null","","","","","",""
"html-keyboard-response","218","194711","0.0-4.0-2.53","null","<p style='position: absolute; top: 40%;left: 20%'><img src='img/s1.jpeg' width='200px'/></p> <p style='position: absolute; top: 40%;right: 20%'><img src='img/s2s.jpeg' width='200px'/></p> <p style='position: absolute; top: 40%;right: 45%'><img src='img/reward.jpeg' width='200px'/></p>","null","","","","","",""
"html-keyboard-response","219","196213","0.0-4.0-3.53","null","<p style=""font-size: 48px"">+</p>","null","","","","","",""
"html-button-response","220","197210","0.0-4.0-0.54","995.7349999967846","","","","1","2","1","0","1"
"html-keyboard-response","221","197713","0.0-4.0-1.54","null","<p style='position: absolute; top: 40%;right: 20%'><img src='img/s1.jpeg' width='200px'/></p> <p style='position: absolute; top: 40%;left: 20%'><img src='img/s2s.jpeg' width='200px'/></p>","null","","","","","",""
"html-keyboard-response","222","198716","0.0-4.0-2.54","null","<p style='position: absolute; top: 40%;right: 20%'><img src='img/s1.jpeg' width='200px'/></p> <p style='position: absolute; top: 40%;left: 20%'><img src='img/s2s.jpeg' width='200px'/></p> <p style='position: absolute; top: 40%;right: 45%'><img src='img/punishment.jpeg' width='200px'/></p>","null","","","","","",""
"html-keyboard-response","223","199397","0.0-4.0-3.54","null","<p style=""font-size: 48px"">+</p>","null","","","","","",""
"html-button-response","224","200384","0.0-4.0-0.55","986.5250000002561","","","","1","2","1","0","1"
"html-keyboard-response","225","200888","0.0-4.0-1.55","null","<p style='position: absolute; top: 40%;right: 20%'><img src='img/s1.jpeg' width='200px'/></p> <p style='position: absolute; top: 40%;left: 20%'><img src='img/s2s.jpeg' width='200px'/></p>","null","","","","","",""
"html-keyboard-response","226","201889","0.0-4.0-2.55","null","<p style='position: absolute; top: 40%;right: 20%'><img src='img/s1.jpeg' width='200px'/></p> <p style='position: absolute; top: 40%;left: 20%'><img src='img/s2s.jpeg' width='200px'/></p> <p style='position: absolute; top: 40%;right: 45%'><img src='img/punishment.jpeg' width='200px'/></p>","null","","","","","",""
"html-keyboard-response","227","202563","0.0-4.0-3.55","null","<p style=""font-size: 48px"">+</p>","null","","","","","",""
"html-button-response","228","203532","0.0-4.0-0.56","967.9050000049756","","","","0","2","1","0","1"
"html-keyboard-response","229","204034","0.0-4.0-1.56","null","<p style='position: absolute; top: 40%;right: 20%'><img src='img/s1s.jpeg' width='200px'/></p> <p style='position: absolute; top: 40%;left: 20%'><img src='img/s2.jpeg' width='200px'/></p>","null","","","","","",""
"html-keyboard-response","230","205038","0.0-4.0-2.56","null","<p style='position: absolute; top: 40%;right: 20%'><img src='img/s1s.jpeg' width='200px'/></p> <p style='position: absolute; top: 40%;left: 20%'><img src='img/s2.jpeg' width='200px'/></p> <p style='position: absolute; top: 40%;right: 45%'><img src='img/punishment.jpeg' width='200px'/></p>","null","","","","","",""
"html-keyboard-response","231","206060","0.0-4.0-3.56","null","<p style=""font-size: 48px"">+</p>","null","","","","","",""
"html-button-response","232","206576","0.0-4.0-0.57","515.2350000062142","","","","1","1","2","0","0"
"html-keyboard-response","233","207080","0.0-4.0-1.57","null","<p style='position: absolute; top: 40%;left: 20%'><img src='img/s1.jpeg' width='200px'/></p> <p style='position: absolute; top: 40%;right: 20%'><img src='img/s2s.jpeg' width='200px'/></p>","null","","","","","",""
"html-keyboard-response","234","208082","0.0-4.0-2.57","null","<p style='position: absolute; top: 40%;left: 20%'><img src='img/s1.jpeg' width='200px'/></p> <p style='position: absolute; top: 40%;right: 20%'><img src='img/s2s.jpeg' width='200px'/></p> <p style='position: absolute; top: 40%;right: 45%'><img src='img/punishment.jpeg' width='200px'/></p>","null","","","","","",""
"html-keyboard-response","235","209002","0.0-4.0-3.57","null","<p style=""font-size: 48px"">+</p>","null","","","","","",""
"html-button-response","236","209540","0.0-4.0-0.58","537.1850000010454","","","","1","1","2","0","1"
"html-keyboard-response","237","210046","0.0-4.0-1.58","null","<p style='position: absolute; top: 40%;left: 20%'><img src='img/s1.jpeg' width='200px'/></p> <p style='position: absolute; top: 40%;right: 20%'><img src='img/s2s.jpeg' width='200px'/></p>","null","","","","","",""
"html-keyboard-response","238","211052","0.0-4.0-2.58","null","<p style='position: absolute; top: 40%;left: 20%'><img src='img/s1.jpeg' width='200px'/></p> <p style='position: absolute; top: 40%;right: 20%'><img src='img/s2s.jpeg' width='200px'/></p> <p style='position: absolute; top: 40%;right: 45%'><img src='img/reward.jpeg' width='200px'/></p>","null","","","","","",""
"html-keyboard-response","239","212266","0.0-4.0-3.58","null","<p style=""font-size: 48px"">+</p>","null","","","","","",""
"html-button-response","240","213216","0.0-4.0-0.59","949.0500000028987","","","","1","2","1","0","1"
"html-keyboard-response","241","213719","0.0-4.0-1.59","null","<p style='position: absolute; top: 40%;right: 20%'><img src='img/s1.jpeg' width='200px'/></p> <p style='position: absolute; top: 40%;left: 20%'><img src='img/s2s.jpeg' width='200px'/></p>","null","","","","","",""
"html-keyboard-response","242","214721","0.0-4.0-2.59","null","<p style='position: absolute; top: 40%;right: 20%'><img src='img/s1.jpeg' width='200px'/></p> <p style='position: absolute; top: 40%;left: 20%'><img src='img/s2s.jpeg' width='200px'/></p> <p style='position: absolute; top: 40%;right: 45%'><img src='img/punishment.jpeg' width='200px'/></p>","null","","","","","",""
"html-keyboard-response","243","215530","0.0-4.0-3.59","null","<p style=""font-size: 48px"">+</p>","null","","","","","",""
"html-button-response","244","216340","0.0-4.0-0.60","809.4299999938812","","","","1","2","1","1","1"
"html-keyboard-response","245","216845","0.0-4.0-1.60","null","<p style='position: absolute; top: 40%;right: 20%'><img src='img/s1.jpeg' width='200px'/></p> <p style='position: absolute; top: 40%;left: 20%'><img src='img/s2s.jpeg' width='200px'/></p>","null","","","","","",""
"html-keyboard-response","246","217848","0.0-4.0-2.60","null","<p style='position: absolute; top: 40%;right: 20%'><img src='img/s1.jpeg' width='200px'/></p> <p style='position: absolute; top: 40%;left: 20%'><img src='img/s2s.jpeg' width='200px'/></p> <p style='position: absolute; top: 40%;right: 45%'><img src='img/punishment.jpeg' width='200px'/></p>","null","","","","","",""
"html-keyboard-response","247","218595","0.0-4.0-3.60","null","<p style=""font-size: 48px"">+</p>","null","","","","","",""
"html-button-response","248","219498","0.0-4.0-0.61","902.2949999998673","","","","0","1","2","1","1"
"html-keyboard-response","249","220001","0.0-4.0-1.61","null","<p style='position: absolute; top: 40%;left: 20%'><img src='img/s1s.jpeg' width='200px'/></p> <p style='position: absolute; top: 40%;right: 20%'><img src='img/s2.jpeg' width='200px'/></p>","null","","","","","",""
"html-keyboard-response","250","221005","0.0-4.0-2.61","null","<p style='position: absolute; top: 40%;left: 20%'><img src='img/s1s.jpeg' width='200px'/></p> <p style='position: absolute; top: 40%;right: 20%'><img src='img/s2.jpeg' width='200px'/></p> <p style='position: absolute; top: 40%;right: 45%'><img src='img/reward.jpeg' width='200px'/></p>","null","","","","","",""
"html-keyboard-response","251","221697","0.0-4.0-3.61","null","<p style=""font-size: 48px"">+</p>","null","","","","","",""
"html-button-response","252","222678","0.0-4.0-0.62","980.6699999971897","","","","0","2","1","0","1"
"html-keyboard-response","253","223180","0.0-4.0-1.62","null","<p style='position: absolute; top: 40%;right: 20%'><img src='img/s1s.jpeg' width='200px'/></p> <p style='position: absolute; top: 40%;left: 20%'><img src='img/s2.jpeg' width='200px'/></p>","null","","","","","",""
"html-keyboard-response","254","224185","0.0-4.0-2.62","null","<p style='position: absolute; top: 40%;right: 20%'><img src='img/s1s.jpeg' width='200px'/></p> <p style='position: absolute; top: 40%;left: 20%'><img src='img/s2.jpeg' width='200px'/></p> <p style='position: absolute; top: 40%;right: 45%'><img src='img/punishment.jpeg' width='200px'/></p>","null","","","","","",""
"html-keyboard-response","255","225309","0.0-4.0-3.62","null","<p style=""font-size: 48px"">+</p>","null","","","","","",""
"html-button-response","256","226202","0.0-4.0-0.63","892.439999995986","","","","1","1","2","0","1"
"html-keyboard-response","257","226708","0.0-4.0-1.63","null","<p style='position: absolute; top: 40%;left: 20%'><img src='img/s1.jpeg' width='200px'/></p> <p style='position: absolute; top: 40%;right: 20%'><img src='img/s2s.jpeg' width='200px'/></p>","null","","","","","",""
"html-keyboard-response","258","227709","0.0-4.0-2.63","null","<p style='position: absolute; top: 40%;left: 20%'><img src='img/s1.jpeg' width='200px'/></p> <p style='position: absolute; top: 40%;right: 20%'><img src='img/s2s.jpeg' width='200px'/></p> <p style='position: absolute; top: 40%;right: 45%'><img src='img/reward.jpeg' width='200px'/></p>","null","","","","","",""
"html-keyboard-response","259","228303","0.0-4.0-3.63","null","<p style=""font-size: 48px"">+</p>","null","","","","","",""
"html-button-response","260","229182","0.0-4.0-0.64","878.580000004149","","","","1","1","2","0","0"
"html-keyboard-response","261","229687","0.0-4.0-1.64","null","<p style='position: absolute; top: 40%;left: 20%'><img src='img/s1.jpeg' width='200px'/></p> <p style='position: absolute; top: 40%;right: 20%'><img src='img/s2s.jpeg' width='200px'/></p>","null","","","","","",""
"html-keyboard-response","262","230693","0.0-4.0-2.64","null","<p style='position: absolute; top: 40%;left: 20%'><img src='img/s1.jpeg' width='200px'/></p> <p style='position: absolute; top: 40%;right: 20%'><img src='img/s2s.jpeg' width='200px'/></p> <p style='position: absolute; top: 40%;right: 45%'><img src='img/punishment.jpeg' width='200px'/></p>","null","","","","","",""
"html-keyboard-response","263","231445","0.0-4.0-3.64","null","<p style=""font-size: 48px"">+</p>","null","","","","","",""
"html-button-response","264","232064","0.0-4.0-0.65","618.2699999990291","","","","1","1","2","0","1"
"html-keyboard-response","265","232568","0.0-4.0-1.65","null","<p style='position: absolute; top: 40%;left: 20%'><img src='img/s1.jpeg' width='200px'/></p> <p style='position: absolute; top: 40%;right: 20%'><img src='img/s2s.jpeg' width='200px'/></p>","null","","","","","",""
"html-keyboard-response","266","233573","0.0-4.0-2.65","null","<p style='position: absolute; top: 40%;left: 20%'><img src='img/s1.jpeg' width='200px'/></p> <p style='position: absolute; top: 40%;right: 20%'><img src='img/s2s.jpeg' width='200px'/></p> <p style='position: absolute; top: 40%;right: 45%'><img src='img/reward.jpeg' width='200px'/></p>","null","","","","","",""
"html-keyboard-response","267","234578","0.0-4.0-3.65","null","<p style=""font-size: 48px"">+</p>","null","","","","","",""
"html-button-response","268","235962","0.0-4.0-0.66","1383.495000001858","","","","1","2","1","0","1"
"html-keyboard-response","269","236465","0.0-4.0-1.66","null","<p style='position: absolute; top: 40%;right: 20%'><img src='img/s1.jpeg' width='200px'/></p> <p style='position: absolute; top: 40%;left: 20%'><img src='img/s2s.jpeg' width='200px'/></p>","null","","","","","",""
"html-keyboard-response","270","237470","0.0-4.0-2.66","null","<p style='position: absolute; top: 40%;right: 20%'><img src='img/s1.jpeg' width='200px'/></p> <p style='position: absolute; top: 40%;left: 20%'><img src='img/s2s.jpeg' width='200px'/></p> <p style='position: absolute; top: 40%;right: 45%'><img src='img/punishment.jpeg' width='200px'/></p>","null","","","","","",""
"html-keyboard-response","271","238927","0.0-4.0-3.66","null","<p style=""font-size: 48px"">+</p>","null","","","","","",""
"html-button-response","272","239864","0.0-4.0-0.67","936.1099999950966","","","","1","2","1","0","1"
"html-keyboard-response","273","240366","0.0-4.0-1.67","null","<p style='position: absolute; top: 40%;right: 20%'><img src='img/s1.jpeg' width='200px'/></p> <p style='position: absolute; top: 40%;left: 20%'><img src='img/s2s.jpeg' width='200px'/></p>","null","","","","","",""
"html-keyboard-response","274","241369","0.0-4.0-2.67","null","<p style='position: absolute; top: 40%;right: 20%'><img src='img/s1.jpeg' width='200px'/></p> <p style='position: absolute; top: 40%;left: 20%'><img src='img/s2s.jpeg' width='200px'/></p> <p style='position: absolute; top: 40%;right: 45%'><img src='img/punishment.jpeg' width='200px'/></p>","null","","","","","",""
"html-keyboard-response","275","242564","0.0-4.0-3.67","null","<p style=""font-size: 48px"">+</p>","null","","","","","",""
"html-button-response","276","243370","0.0-4.0-0.68","804.5750000019325","","","","0","2","1","0","1"
"html-keyboard-response","277","243874","0.0-4.0-1.68","null","<p style='position: absolute; top: 40%;right: 20%'><img src='img/s1s.jpeg' width='200px'/></p> <p style='position: absolute; top: 40%;left: 20%'><img src='img/s2.jpeg' width='200px'/></p>","null","","","","","",""
"html-keyboard-response","278","244878","0.0-4.0-2.68","null","<p style='position: absolute; top: 40%;right: 20%'><img src='img/s1s.jpeg' width='200px'/></p> <p style='position: absolute; top: 40%;left: 20%'><img src='img/s2.jpeg' width='200px'/></p> <p style='position: absolute; top: 40%;right: 45%'><img src='img/punishment.jpeg' width='200px'/></p>","null","","","","","",""
"html-keyboard-response","279","246258","0.0-4.0-3.68","null","<p style=""font-size: 48px"">+</p>","null","","","","","",""
"html-button-response","280","247474","0.0-4.0-0.69","1215.3250000046683","","","","0","1","2","0","0"
"html-keyboard-response","281","247976","0.0-4.0-1.69","null","<p style='position: absolute; top: 40%;left: 20%'><img src='img/s1s.jpeg' width='200px'/></p> <p style='position: absolute; top: 40%;right: 20%'><img src='img/s2.jpeg' width='200px'/></p>","null","","","","","",""
"html-keyboard-response","282","248980","0.0-4.0-2.69","null","<p style='position: absolute; top: 40%;left: 20%'><img src='img/s1s.jpeg' width='200px'/></p> <p style='position: absolute; top: 40%;right: 20%'><img src='img/s2.jpeg' width='200px'/></p> <p style='position: absolute; top: 40%;right: 45%'><img src='img/punishment.jpeg' width='200px'/></p>","null","","","","","",""
"html-keyboard-response","283","249825","0.0-4.0-3.69","null","<p style=""font-size: 48px"">+</p>","null","","","","","",""
"html-button-response","284","250614","0.0-4.0-0.70","788.0349999977625","","","","1","1","2","0","1"
"html-keyboard-response","285","251117","0.0-4.0-1.70","null","<p style='position: absolute; top: 40%;left: 20%'><img src='img/s1.jpeg' width='200px'/></p> <p style='position: absolute; top: 40%;right: 20%'><img src='img/s2s.jpeg' width='200px'/></p>","null","","","","","",""
"html-keyboard-response","286","252120","0.0-4.0-2.70","null","<p style='position: absolute; top: 40%;left: 20%'><img src='img/s1.jpeg' width='200px'/></p> <p style='position: absolute; top: 40%;right: 20%'><img src='img/s2s.jpeg' width='200px'/></p> <p style='position: absolute; top: 40%;right: 45%'><img src='img/reward.jpeg' width='200px'/></p>","null","","","","","",""
"html-keyboard-response","287","252894","0.0-4.0-3.70","null","<p style=""font-size: 48px"">+</p>","null","","","","","",""
"html-button-response","288","253440","0.0-4.0-0.71","544.9200000002747","","","","1","1","2","0","1"
"html-keyboard-response","289","253943","0.0-4.0-1.71","null","<p style='position: absolute; top: 40%;left: 20%'><img src='img/s1.jpeg' width='200px'/></p> <p style='position: absolute; top: 40%;right: 20%'><img src='img/s2s.jpeg' width='200px'/></p>","null","","","","","",""
"html-keyboard-response","290","254945","0.0-4.0-2.71","null","<p style='position: absolute; top: 40%;left: 20%'><img src='img/s1.jpeg' width='200px'/></p> <p style='position: absolute; top: 40%;right: 20%'><img src='img/s2s.jpeg' width='200px'/></p> <p style='position: absolute; top: 40%;right: 45%'><img src='img/reward.jpeg' width='200px'/></p>","null","","","","","",""
"html-keyboard-response","291","255826","0.0-4.0-3.71","null","<p style=""font-size: 48px"">+</p>","null","","","","","",""
"html-button-response","292","257056","0.0-4.0-0.72","1229.1649999970105","","","","1","2","1","0","1"
"html-keyboard-response","293","257557","0.0-4.0-1.72","null","<p style='position: absolute; top: 40%;right: 20%'><img src='img/s1.jpeg' width='200px'/></p> <p style='position: absolute; top: 40%;left: 20%'><img src='img/s2s.jpeg' width='200px'/></p>","null","","","","","",""
"html-keyboard-response","294","258558","0.0-4.0-2.72","null","<p style='position: absolute; top: 40%;right: 20%'><img src='img/s1.jpeg' width='200px'/></p> <p style='position: absolute; top: 40%;left: 20%'><img src='img/s2s.jpeg' width='200px'/></p> <p style='position: absolute; top: 40%;right: 45%'><img src='img/punishment.jpeg' width='200px'/></p>","null","","","","","",""
"html-keyboard-response","295","259343","0.0-4.0-3.72","null","<p style=""font-size: 48px"">+</p>","null","","","","","",""
"html-button-response","296","260366","0.0-4.0-0.73","1022.2949999952107","","","","1","2","1","0","1"
"html-keyboard-response","297","260871","0.0-4.0-1.73","null","<p style='position: absolute; top: 40%;right: 20%'><img src='img/s1.jpeg' width='200px'/></p> <p style='position: absolute; top: 40%;left: 20%'><img src='img/s2s.jpeg' width='200px'/></p>","null","","","","","",""
"html-keyboard-response","298","261877","0.0-4.0-2.73","null","<p style='position: absolute; top: 40%;right: 20%'><img src='img/s1.jpeg' width='200px'/></p> <p style='position: absolute; top: 40%;left: 20%'><img src='img/s2s.jpeg' width='200px'/></p> <p style='position: absolute; top: 40%;right: 45%'><img src='img/punishment.jpeg' width='200px'/></p>","null","","","","","",""
"html-keyboard-response","299","263338","0.0-4.0-3.73","null","<p style=""font-size: 48px"">+</p>","null","","","","","",""
"html-button-response","300","263934","0.0-4.0-0.74","595.0000000011642","","","","0","2","1","0","0"
"html-keyboard-response","301","264438","0.0-4.0-1.74","null","<p style='position: absolute; top: 40%;right: 20%'><img src='img/s1s.jpeg' width='200px'/></p> <p style='position: absolute; top: 40%;left: 20%'><img src='img/s2.jpeg' width='200px'/></p>","null","","","","","",""
"html-keyboard-response","302","265439","0.0-4.0-2.74","null","<p style='position: absolute; top: 40%;right: 20%'><img src='img/s1s.jpeg' width='200px'/></p> <p style='position: absolute; top: 40%;left: 20%'><img src='img/s2.jpeg' width='200px'/></p> <p style='position: absolute; top: 40%;right: 45%'><img src='img/punishment.jpeg' width='200px'/></p>","null","","","","","",""
"html-keyboard-response","303","265947","0.0-4.0-3.74","null","<p style=""font-size: 48px"">+</p>","null","","","","","",""
"html-button-response","304","266826","0.0-4.0-0.75","878.179999999702","","","","1","2","1","1","1"
"html-keyboard-response","305","267327","0.0-4.0-1.75","null","<p style='position: absolute; top: 40%;right: 20%'><img src='img/s1.jpeg' width='200px'/></p> <p style='position: absolute; top: 40%;left: 20%'><img src='img/s2s.jpeg' width='200px'/></p>","null","","","","","",""
"html-keyboard-response","306","268330","0.0-4.0-2.75","null","<p style='position: absolute; top: 40%;right: 20%'><img src='img/s1.jpeg' width='200px'/></p> <p style='position: absolute; top: 40%;left: 20%'><img src='img/s2s.jpeg' width='200px'/></p> <p style='position: absolute; top: 40%;right: 45%'><img src='img/punishment.jpeg' width='200px'/></p>","null","","","","","",""
"html-keyboard-response","307","269407","0.0-4.0-3.75","null","<p style=""font-size: 48px"">+</p>","null","","","","","",""
"html-button-response","308","270046","0.0-4.0-0.76","638.135000001057","","","","1","2","1","0","1"
"html-keyboard-response","309","270549","0.0-4.0-1.76","null","<p style='position: absolute; top: 40%;right: 20%'><img src='img/s1.jpeg' width='200px'/></p> <p style='position: absolute; top: 40%;left: 20%'><img src='img/s2s.jpeg' width='200px'/></p>","null","","","","","",""
"html-keyboard-response","310","271553","0.0-4.0-2.76","null","<p style='position: absolute; top: 40%;right: 20%'><img src='img/s1.jpeg' width='200px'/></p> <p style='position: absolute; top: 40%;left: 20%'><img src='img/s2s.jpeg' width='200px'/></p> <p style='position: absolute; top: 40%;right: 45%'><img src='img/punishment.jpeg' width='200px'/></p>","null","","","","","",""
"html-keyboard-response","311","272207","0.0-4.0-3.76","null","<p style=""font-size: 48px"">+</p>","null","","","","","",""
"html-button-response","312","273332","0.0-4.0-0.77","1124.0499999985332","","","","1","1","2","0","0"
"html-keyboard-response","313","273837","0.0-4.0-1.77","null","<p style='position: absolute; top: 40%;left: 20%'><img src='img/s1.jpeg' width='200px'/></p> <p style='position: absolute; top: 40%;right: 20%'><img src='img/s2s.jpeg' width='200px'/></p>","null","","","","","",""
"html-keyboard-response","314","274840","0.0-4.0-2.77","null","<p style='position: absolute; top: 40%;left: 20%'><img src='img/s1.jpeg' width='200px'/></p> <p style='position: absolute; top: 40%;right: 20%'><img src='img/s2s.jpeg' width='200px'/></p> <p style='position: absolute; top: 40%;right: 45%'><img src='img/punishment.jpeg' width='200px'/></p>","null","","","","","",""
"html-keyboard-response","315","276138","0.0-4.0-3.77","null","<p style=""font-size: 48px"">+</p>","null","","","","","",""
"html-button-response","316","277584","0.0-4.0-0.78","1445.3599999978906","","","","0","1","2","0","1"
"html-keyboard-response","317","278089","0.0-4.0-1.78","null","<p style='position: absolute; top: 40%;left: 20%'><img src='img/s1s.jpeg' width='200px'/></p> <p style='position: absolute; top: 40%;right: 20%'><img src='img/s2.jpeg' width='200px'/></p>","null","","","","","",""
"html-keyboard-response","318","279092","0.0-4.0-2.78","null","<p style='position: absolute; top: 40%;left: 20%'><img src='img/s1s.jpeg' width='200px'/></p> <p style='position: absolute; top: 40%;right: 20%'><img src='img/s2.jpeg' width='200px'/></p> <p style='position: absolute; top: 40%;right: 45%'><img src='img/punishment.jpeg' width='200px'/></p>","null","","","","","",""
"html-keyboard-response","319","280381","0.0-4.0-3.78","null","<p style=""font-size: 48px"">+</p>","null","","","","","",""
"html-button-response","320","281324","0.0-4.0-0.79","941.8399999995017","","","","1","1","2","1","1"
"html-keyboard-response","321","281827","0.0-4.0-1.79","null","<p style='position: absolute; top: 40%;left: 20%'><img src='img/s1.jpeg' width='200px'/></p> <p style='position: absolute; top: 40%;right: 20%'><img src='img/s2s.jpeg' width='200px'/></p>","null","","","","","",""
"html-keyboard-response","322","282830","0.0-4.0-2.79","null","<p style='position: absolute; top: 40%;left: 20%'><img src='img/s1.jpeg' width='200px'/></p> <p style='position: absolute; top: 40%;right: 20%'><img src='img/s2s.jpeg' width='200px'/></p> <p style='position: absolute; top: 40%;right: 45%'><img src='img/reward.jpeg' width='200px'/></p>","null","","","","","",""
"html-keyboard-response","323","284164","0.0-4.0-3.79","null","<p style=""font-size: 48px"">+</p>","null","","","","","",""
