"rt","key_press","trial_type","trial_index","time_elapsed","internal_node_id","correct","stimulus"
"5636","32","text","0","5642","0.0-0.0","",""
"1908","90","categorize","1","10564","0.0-1.0-0.0","true","img/slot.png"
"510","90","categorize","2","14083","0.0-1.0-1.0","true","img/slot.png"
"122","90","categorize","3","17210","0.0-1.0-2.0","false","img/slot.png"
"314","77","categorize","4","20531","0.0-1.0-3.0","false","img/slot.png"
"80","90","categorize","5","23619","0.0-1.0-4.0","true","img/slot.png"
"441","90","categorize","6","27068","0.0-1.0-5.0","true","img/slot.png"
"562","90","categorize","7","30638","0.0-1.0-6.0","true","img/slot.png"
"349","90","categorize","8","33995","0.0-1.0-7.0","true","img/slot.png"
"626","90","categorize","9","37626","0.0-1.0-8.0","false","img/slot.png"
"353","90","categorize","10","40987","0.0-1.0-9.0","false","img/slot.png"
"241","77","categorize","11","44238","0.0-1.0-10.0","false","img/slot.png"
"1478","90","categorize","12","48724","0.0-1.0-11.0","false","img/slot.png"
"376","77","categorize","13","52109","0.0-1.0-12.0","false","img/slot.png"
"326","90","categorize","14","55441","0.0-1.0-13.0","false","img/slot.png"
"626","90","categorize","15","59075","0.0-1.0-14.0","true","img/slot.png"
"912","90","categorize","16","62997","0.0-1.0-15.0","true","img/slot.png"
"1231","90","categorize","17","67237","0.0-1.0-16.0","false","img/slot.png"
"357","90","categorize","18","70603","0.0-1.0-17.0","true","img/slot.png"
"504","90","categorize","19","74116","0.0-1.0-18.0","true","img/slot.png"
"399","90","categorize","20","77523","0.0-1.0-19.0","true","img/slot.png"
"486","90","categorize","21","81018","0.0-1.0-20.0","true","img/slot.png"
"1282","90","categorize","22","85310","0.0-1.0-21.0","false","img/slot.png"
"4334","77","categorize","23","92649","0.0-1.0-22.0","false","img/slot.png"
"449","90","categorize","24","96104","0.0-1.0-23.0","true","img/slot.png"
"378","90","categorize","25","99489","0.0-1.0-24.0","true","img/slot.png"
"474","90","categorize","26","102972","0.0-1.0-25.0","true","img/slot.png"
"2366","90","categorize","27","108347","0.0-1.0-26.0","false","img/slot.png"
"1271","77","categorize","28","112625","0.0-1.0-27.0","true","img/slot.png"
"593","77","categorize","29","116224","0.0-1.0-28.0","false","img/slot.png"
"338","90","categorize","30","119568","0.0-1.0-29.0","true","img/slot.png"
"450","90","categorize","31","123027","0.0-1.0-30.0","true","img/slot.png"
"302","90","categorize","32","126336","0.0-1.0-31.0","true","img/slot.png"
"402","90","categorize","33","129749","0.0-1.0-32.0","true","img/slot.png"
"460","90","categorize","34","133215","0.0-1.0-33.0","false","img/slot.png"
"297","90","categorize","35","136523","0.0-1.0-34.0","true","img/slot.png"
"357","90","categorize","36","139888","0.0-1.0-35.0","true","img/slot.png"
"335","90","categorize","37","143234","0.0-1.0-36.0","false","img/slot.png"
"336","90","categorize","38","146577","0.0-1.0-37.0","true","img/slot.png"
"319","90","categorize","39","149904","0.0-1.0-38.0","false","img/slot.png"
"410","90","categorize","40","153321","0.0-1.0-39.0","true","img/slot.png"
"237","90","categorize","41","156566","0.0-2.0-0.0","true","img/slot.png"
"330","90","categorize","42","159905","0.0-2.0-1.0","false","img/slot.png"
"309","90","categorize","43","163226","0.0-2.0-2.0","false","img/slot.png"
"303","90","categorize","44","166535","0.0-2.0-3.0","false","img/slot.png"
"345","90","categorize","45","169889","0.0-2.0-4.0","true","img/slot.png"
"343","90","categorize","46","173239","0.0-2.0-5.0","false","img/slot.png"
"289","90","categorize","47","176536","0.0-2.0-6.0","false","img/slot.png"
"208","77","categorize","48","179752","0.0-2.0-7.0","false","img/slot.png"
"112","77","categorize","49","182869","0.0-2.0-8.0","true","img/slot.png"
"370","77","categorize","50","186248","0.0-2.0-9.0","true","img/slot.png"
"336","77","categorize","51","189591","0.0-2.0-10.0","false","img/slot.png"
"360","77","categorize","52","192959","0.0-2.0-11.0","true","img/slot.png"
"401","77","categorize","53","196366","0.0-2.0-12.0","true","img/slot.png"
"274","77","categorize","54","199645","0.0-2.0-13.0","true","img/slot.png"
"340","77","categorize","55","202989","0.0-2.0-14.0","false","img/slot.png"
"313","90","categorize","56","206309","0.0-2.0-15.0","false","img/slot.png"
"321","77","categorize","57","209641","0.0-2.0-16.0","false","img/slot.png"
"277","77","categorize","58","212926","0.0-2.0-17.0","true","img/slot.png"
"263","77","categorize","59","216201","0.0-2.0-18.0","true","img/slot.png"
"333","77","categorize","60","219544","0.0-2.0-19.0","true","img/slot.png"
"286","77","categorize","61","222841","0.0-2.0-20.0","false","img/slot.png"
"245","77","categorize","62","226094","0.0-2.0-21.0","false","img/slot.png"
"346","77","categorize","63","229446","0.0-2.0-22.0","true","img/slot.png"
"330","77","categorize","64","232785","0.0-2.0-23.0","false","img/slot.png"
"380","77","categorize","65","236179","0.0-2.0-24.0","true","img/slot.png"
"395","90","categorize","66","239582","0.0-2.0-25.0","false","img/slot.png"
"305","77","categorize","67","242897","0.0-2.0-26.0","true","img/slot.png"
"772","77","categorize","68","246676","0.0-2.0-27.0","true","img/slot.png"
"425","77","categorize","69","250113","0.0-2.0-28.0","true","img/slot.png"
"534","77","categorize","70","253654","0.0-2.0-29.0","true","img/slot.png"
"433","77","categorize","71","257096","0.0-2.0-30.0","false","img/slot.png"
"399","77","categorize","72","260503","0.0-2.0-31.0","true","img/slot.png"
"390","77","categorize","73","263905","0.0-2.0-32.0","true","img/slot.png"
"580","77","categorize","74","267492","0.0-2.0-33.0","true","img/slot.png"
"354","77","categorize","75","270853","0.0-2.0-34.0","false","img/slot.png"
"295","77","categorize","76","274156","0.0-2.0-35.0","true","img/slot.png"
"328","77","categorize","77","277494","0.0-2.0-36.0","true","img/slot.png"
"327","77","categorize","78","280832","0.0-2.0-37.0","false","img/slot.png"
"428","77","categorize","79","284268","0.0-2.0-38.0","true","img/slot.png"
"297","77","categorize","80","287571","0.0-2.0-39.0","true","img/slot.png"
"338","77","categorize","81","290915","0.0-3.0-0.0","false","img/slot.png"
"283","90","categorize","82","294205","0.0-3.0-1.0","true","img/slot.png"
"303","90","categorize","83","297521","0.0-3.0-2.0","true","img/slot.png"
"285","90","categorize","84","300812","0.0-3.0-3.0","true","img/slot.png"
"338","90","categorize","85","304155","0.0-3.0-4.0","true","img/slot.png"
"305","90","categorize","86","307470","0.0-3.0-5.0","false","img/slot.png"
"253","77","categorize","87","310733","0.0-3.0-6.0","true","img/slot.png"
"336","90","categorize","88","314074","0.0-3.0-7.0","true","img/slot.png"
"409","90","categorize","89","317495","0.0-3.0-8.0","true","img/slot.png"
"317","90","categorize","90","320819","0.0-3.0-9.0","false","img/slot.png"
"353","90","categorize","91","324182","0.0-3.0-10.0","true","img/slot.png"
"573","90","categorize","92","327764","0.0-3.0-11.0","true","img/slot.png"
"297","90","categorize","93","331067","0.0-3.0-12.0","true","img/slot.png"
"297","90","categorize","94","334370","0.0-3.0-13.0","true","img/slot.png"
"410","90","categorize","95","337789","0.0-3.0-14.0","false","img/slot.png"
"360","77","categorize","96","341156","0.0-3.0-15.0","false","img/slot.png"
"345","90","categorize","97","344507","0.0-3.0-16.0","false","img/slot.png"
"394","90","categorize","98","347909","0.0-3.0-17.0","true","img/slot.png"
"328","90","categorize","99","351244","0.0-3.0-18.0","true","img/slot.png"
"527","90","categorize","100","354780","0.0-3.0-19.0","false","img/slot.png"
"448","77","categorize","101","358233","0.0-3.0-20.0","false","img/slot.png"
"353","90","categorize","102","361594","0.0-3.0-21.0","true","img/slot.png"
"434","90","categorize","103","365034","0.0-3.0-22.0","true","img/slot.png"
"338","90","categorize","104","368380","0.0-3.0-23.0","false","img/slot.png"
"423","77","categorize","105","371811","0.0-3.0-24.0","false","img/slot.png"
"343","90","categorize","106","375160","0.0-3.0-25.0","true","img/slot.png"
"274","90","categorize","107","378445","0.0-3.0-26.0","false","img/slot.png"
"94","90","categorize","108","381546","0.0-3.0-27.0","false","img/slot.png"
"330","77","categorize","109","384884","0.0-3.0-28.0","false","img/slot.png"
"320","90","categorize","110","388212","0.0-3.0-29.0","true","img/slot.png"
"320","90","categorize","111","391540","0.0-3.0-30.0","true","img/slot.png"
"366","90","categorize","112","394914","0.0-3.0-31.0","true","img/slot.png"
"593","90","categorize","113","398513","0.0-3.0-32.0","true","img/slot.png"
"721","90","categorize","114","402240","0.0-3.0-33.0","false","img/slot.png"
"411","77","categorize","115","405659","0.0-3.0-34.0","false","img/slot.png"
"294","90","categorize","116","408963","0.0-3.0-35.0","true","img/slot.png"
"317","90","categorize","117","412288","0.0-3.0-36.0","false","img/slot.png"
"320","77","categorize","118","415620","0.0-3.0-37.0","false","img/slot.png"
"279","90","categorize","119","418906","0.0-3.0-38.0","false","img/slot.png"
"304","90","categorize","120","422220","0.0-3.0-39.0","true","img/slot.png"
"3366","77","text","121","426590","0.0-4.0","",""
