"trial_type","trial_index","time_elapsed","internal_node_id","rt","stimulus","key_press","success","button_pressed","left_right_s1","left_right_s2","reward_s1","reward_s2"
"pavlovia","0","4","0.0-0.0","","","","","","","","",""
"html-keyboard-response","1","2151","0.0-1.0","2145.489999995334","<p><span style='font-size:20pt;'>実験にお越しいただき，ありがとうございます!!!</span></p><p>キーボードのキーをどれか押して，開始してください</p>","32","","","","","",""
"fullscreen","2","4763","0.0-2.0","","","","true","","","","",""
"html-keyboard-response","3","5816","0.0-3.0","1051.9200000053388","<p style='text-align:left'>画面に２つの図形がでてきますので，どちらかの図形を選択してください。</p><p style='text-align'>あなたの選択に対して，ポジティブな反応（緑色の笑顔）かネガティブな反応（赤色の悲しい顔）が出ます。</p><p style='text-align:left'>一方の図形はポジティブな反応が出やすく，もう一方はそうではありません。</p><p style='text-align:left'>できるだけ，ポジティブな反応が得られるように，選択をしてください。</p><p style='text-align:left'>図形の選択はマウスを使って行ってください</p><p style='text-align:left'>なお，図形とそれに対する反応との関係は途中で変わることがあります。</p><p style='text-align:left'>また，図形の出る位置（左右）は頻繁に変わります。</p><p style='text-align:left'>準備ができましたら，キーボードのキーを押して始めてください。</p>","32","","","","","",""
"html-button-response","4","8426","0.0-4.0-0.0","1604.7400000024936","","","","0","1","2","1","1"
"html-keyboard-response","5","8928","0.0-4.0-1.0","null","<p style='position: absolute; top: 40%;left: 20%'><img src='img/s1s.jpeg' width='200px'/></p> <p style='position: absolute; top: 40%;right: 20%'><img src='img/s2.jpeg' width='200px'/></p>","null","","","","","",""
"html-keyboard-response","6","9931","0.0-4.0-2.0","null","<p style='position: absolute; top: 40%;left: 20%'><img src='img/s1s.jpeg' width='200px'/></p> <p style='position: absolute; top: 40%;right: 20%'><img src='img/s2.jpeg' width='200px'/></p> <p style='position: absolute; top: 40%;right: 45%'><img src='img/reward.jpeg' width='200px'/></p>","null","","","","","",""
"html-keyboard-response","7","10477","0.0-4.0-3.0","null","<p style=""font-size: 48px"">+</p>","null","","","","","",""
"html-button-response","8","11044","0.0-4.0-0.1","566.3350000031642","","","","0","1","2","1","0"
"html-keyboard-response","9","11550","0.0-4.0-1.1","null","<p style='position: absolute; top: 40%;left: 20%'><img src='img/s1s.jpeg' width='200px'/></p> <p style='position: absolute; top: 40%;right: 20%'><img src='img/s2.jpeg' width='200px'/></p>","null","","","","","",""
"html-keyboard-response","10","12555","0.0-4.0-2.1","null","<p style='position: absolute; top: 40%;left: 20%'><img src='img/s1s.jpeg' width='200px'/></p> <p style='position: absolute; top: 40%;right: 20%'><img src='img/s2.jpeg' width='200px'/></p> <p style='position: absolute; top: 40%;right: 45%'><img src='img/reward.jpeg' width='200px'/></p>","null","","","","","",""
"html-keyboard-response","11","13775","0.0-4.0-3.1","null","<p style=""font-size: 48px"">+</p>","null","","","","","",""
"html-button-response","12","14708","0.0-4.0-0.2","931.9649999961257","","","","0","2","1","1","1"
"html-keyboard-response","13","15212","0.0-4.0-1.2","null","<p style='position: absolute; top: 40%;right: 20%'><img src='img/s1s.jpeg' width='200px'/></p> <p style='position: absolute; top: 40%;left: 20%'><img src='img/s2.jpeg' width='200px'/></p>","null","","","","","",""
"html-keyboard-response","14","16215","0.0-4.0-2.2","null","<p style='position: absolute; top: 40%;right: 20%'><img src='img/s1s.jpeg' width='200px'/></p> <p style='position: absolute; top: 40%;left: 20%'><img src='img/s2.jpeg' width='200px'/></p> <p style='position: absolute; top: 40%;right: 45%'><img src='img/reward.jpeg' width='200px'/></p>","null","","","","","",""
"html-keyboard-response","15","16771","0.0-4.0-3.2","null","<p style=""font-size: 48px"">+</p>","null","","","","","",""
"html-button-response","16","17708","0.0-4.0-0.3","936.0250000027008","","","","0","2","1","1","0"
"html-keyboard-response","17","18209","0.0-4.0-1.3","null","<p style='position: absolute; top: 40%;right: 20%'><img src='img/s1s.jpeg' width='200px'/></p> <p style='position: absolute; top: 40%;left: 20%'><img src='img/s2.jpeg' width='200px'/></p>","null","","","","","",""
"html-keyboard-response","18","19213","0.0-4.0-2.3","null","<p style='position: absolute; top: 40%;right: 20%'><img src='img/s1s.jpeg' width='200px'/></p> <p style='position: absolute; top: 40%;left: 20%'><img src='img/s2.jpeg' width='200px'/></p> <p style='position: absolute; top: 40%;right: 45%'><img src='img/reward.jpeg' width='200px'/></p>","null","","","","","",""
"html-keyboard-response","19","20525","0.0-4.0-3.3","null","<p style=""font-size: 48px"">+</p>","null","","","","","",""
"html-button-response","20","21642","0.0-4.0-0.4","1116.1799999972573","","","","0","1","2","1","0"
"html-keyboard-response","21","22144","0.0-4.0-1.4","null","<p style='position: absolute; top: 40%;left: 20%'><img src='img/s1s.jpeg' width='200px'/></p> <p style='position: absolute; top: 40%;right: 20%'><img src='img/s2.jpeg' width='200px'/></p>","null","","","","","",""
"html-keyboard-response","22","23149","0.0-4.0-2.4","null","<p style='position: absolute; top: 40%;left: 20%'><img src='img/s1s.jpeg' width='200px'/></p> <p style='position: absolute; top: 40%;right: 20%'><img src='img/s2.jpeg' width='200px'/></p> <p style='position: absolute; top: 40%;right: 45%'><img src='img/reward.jpeg' width='200px'/></p>","null","","","","","",""
"html-keyboard-response","23","23806","0.0-4.0-3.4","null","<p style=""font-size: 48px"">+</p>","null","","","","","",""
"html-button-response","24","24830","0.0-4.0-0.5","1023.2400000022608","","","","0","2","1","1","0"
"html-keyboard-response","25","25334","0.0-4.0-1.5","null","<p style='position: absolute; top: 40%;right: 20%'><img src='img/s1s.jpeg' width='200px'/></p> <p style='position: absolute; top: 40%;left: 20%'><img src='img/s2.jpeg' width='200px'/></p>","null","","","","","",""
"html-keyboard-response","26","26338","0.0-4.0-2.5","null","<p style='position: absolute; top: 40%;right: 20%'><img src='img/s1s.jpeg' width='200px'/></p> <p style='position: absolute; top: 40%;left: 20%'><img src='img/s2.jpeg' width='200px'/></p> <p style='position: absolute; top: 40%;right: 45%'><img src='img/reward.jpeg' width='200px'/></p>","null","","","","","",""
"html-keyboard-response","27","27421","0.0-4.0-3.5","null","<p style=""font-size: 48px"">+</p>","null","","","","","",""
"html-button-response","28","28462","0.0-4.0-0.6","1040.2049999975134","","","","0","1","2","1","0"
"html-keyboard-response","29","28965","0.0-4.0-1.6","null","<p style='position: absolute; top: 40%;left: 20%'><img src='img/s1s.jpeg' width='200px'/></p> <p style='position: absolute; top: 40%;right: 20%'><img src='img/s2.jpeg' width='200px'/></p>","null","","","","","",""
"html-keyboard-response","30","29969","0.0-4.0-2.6","null","<p style='position: absolute; top: 40%;left: 20%'><img src='img/s1s.jpeg' width='200px'/></p> <p style='position: absolute; top: 40%;right: 20%'><img src='img/s2.jpeg' width='200px'/></p> <p style='position: absolute; top: 40%;right: 45%'><img src='img/reward.jpeg' width='200px'/></p>","null","","","","","",""
"html-keyboard-response","31","30573","0.0-4.0-3.6","null","<p style=""font-size: 48px"">+</p>","null","","","","","",""
"html-button-response","32","31660","0.0-4.0-0.7","1086.2399999969057","","","","0","2","1","1","0"
"html-keyboard-response","33","32162","0.0-4.0-1.7","null","<p style='position: absolute; top: 40%;right: 20%'><img src='img/s1s.jpeg' width='200px'/></p> <p style='position: absolute; top: 40%;left: 20%'><img src='img/s2.jpeg' width='200px'/></p>","null","","","","","",""
"html-keyboard-response","34","33164","0.0-4.0-2.7","null","<p style='position: absolute; top: 40%;right: 20%'><img src='img/s1s.jpeg' width='200px'/></p> <p style='position: absolute; top: 40%;left: 20%'><img src='img/s2.jpeg' width='200px'/></p> <p style='position: absolute; top: 40%;right: 45%'><img src='img/reward.jpeg' width='200px'/></p>","null","","","","","",""
"html-keyboard-response","35","34043","0.0-4.0-3.7","null","<p style=""font-size: 48px"">+</p>","null","","","","","",""
"html-button-response","36","35070","0.0-4.0-0.8","1026.9249999983003","","","","0","1","2","0","0"
"html-keyboard-response","37","35572","0.0-4.0-1.8","null","<p style='position: absolute; top: 40%;left: 20%'><img src='img/s1s.jpeg' width='200px'/></p> <p style='position: absolute; top: 40%;right: 20%'><img src='img/s2.jpeg' width='200px'/></p>","null","","","","","",""
"html-keyboard-response","38","36577","0.0-4.0-2.8","null","<p style='position: absolute; top: 40%;left: 20%'><img src='img/s1s.jpeg' width='200px'/></p> <p style='position: absolute; top: 40%;right: 20%'><img src='img/s2.jpeg' width='200px'/></p> <p style='position: absolute; top: 40%;right: 45%'><img src='img/punishment.jpeg' width='200px'/></p>","null","","","","","",""
"html-keyboard-response","39","37220","0.0-4.0-3.8","null","<p style=""font-size: 48px"">+</p>","null","","","","","",""
"html-button-response","40","38086","0.0-4.0-0.9","864.8900000043795","","","","1","2","1","0","0"
"html-keyboard-response","41","38590","0.0-4.0-1.9","null","<p style='position: absolute; top: 40%;right: 20%'><img src='img/s1.jpeg' width='200px'/></p> <p style='position: absolute; top: 40%;left: 20%'><img src='img/s2s.jpeg' width='200px'/></p>","null","","","","","",""
"html-keyboard-response","42","39592","0.0-4.0-2.9","null","<p style='position: absolute; top: 40%;right: 20%'><img src='img/s1.jpeg' width='200px'/></p> <p style='position: absolute; top: 40%;left: 20%'><img src='img/s2s.jpeg' width='200px'/></p> <p style='position: absolute; top: 40%;right: 45%'><img src='img/reward.jpeg' width='200px'/></p>","null","","","","","",""
"html-keyboard-response","43","40258","0.0-4.0-3.9","null","<p style=""font-size: 48px"">+</p>","null","","","","","",""
"html-button-response","44","41114","0.0-4.0-0.10","855.0949999989825","","","","1","1","2","1","0"
"html-keyboard-response","45","41615","0.0-4.0-1.10","null","<p style='position: absolute; top: 40%;left: 20%'><img src='img/s1.jpeg' width='200px'/></p> <p style='position: absolute; top: 40%;right: 20%'><img src='img/s2s.jpeg' width='200px'/></p>","null","","","","","",""
"html-keyboard-response","46","42619","0.0-4.0-2.10","null","<p style='position: absolute; top: 40%;left: 20%'><img src='img/s1.jpeg' width='200px'/></p> <p style='position: absolute; top: 40%;right: 20%'><img src='img/s2s.jpeg' width='200px'/></p> <p style='position: absolute; top: 40%;right: 45%'><img src='img/punishment.jpeg' width='200px'/></p>","null","","","","","",""
"html-keyboard-response","47","43901","0.0-4.0-3.10","null","<p style=""font-size: 48px"">+</p>","null","","","","","",""
"html-button-response","48","44664","0.0-4.0-0.11","762.2899999987567","","","","0","1","2","1","1"
"html-keyboard-response","49","45167","0.0-4.0-1.11","null","<p style='position: absolute; top: 40%;left: 20%'><img src='img/s1s.jpeg' width='200px'/></p> <p style='position: absolute; top: 40%;right: 20%'><img src='img/s2.jpeg' width='200px'/></p>","null","","","","","",""
"html-keyboard-response","50","46171","0.0-4.0-2.11","null","<p style='position: absolute; top: 40%;left: 20%'><img src='img/s1s.jpeg' width='200px'/></p> <p style='position: absolute; top: 40%;right: 20%'><img src='img/s2.jpeg' width='200px'/></p> <p style='position: absolute; top: 40%;right: 45%'><img src='img/reward.jpeg' width='200px'/></p>","null","","","","","",""
"html-keyboard-response","51","47472","0.0-4.0-3.11","null","<p style=""font-size: 48px"">+</p>","null","","","","","",""
"html-button-response","52","48189","0.0-4.0-0.12","715.9200000023702","","","","0","1","2","1","0"
"html-keyboard-response","53","48691","0.0-4.0-1.12","null","<p style='position: absolute; top: 40%;left: 20%'><img src='img/s1s.jpeg' width='200px'/></p> <p style='position: absolute; top: 40%;right: 20%'><img src='img/s2.jpeg' width='200px'/></p>","null","","","","","",""
"html-keyboard-response","54","49695","0.0-4.0-2.12","null","<p style='position: absolute; top: 40%;left: 20%'><img src='img/s1s.jpeg' width='200px'/></p> <p style='position: absolute; top: 40%;right: 20%'><img src='img/s2.jpeg' width='200px'/></p> <p style='position: absolute; top: 40%;right: 45%'><img src='img/reward.jpeg' width='200px'/></p>","null","","","","","",""
"html-keyboard-response","55","50671","0.0-4.0-3.12","null","<p style=""font-size: 48px"">+</p>","null","","","","","",""
"html-button-response","56","52034","0.0-4.0-0.13","1361.9699999981094","","","","0","2","1","1","0"
"html-keyboard-response","57","52536","0.0-4.0-1.13","null","<p style='position: absolute; top: 40%;right: 20%'><img src='img/s1s.jpeg' width='200px'/></p> <p style='position: absolute; top: 40%;left: 20%'><img src='img/s2.jpeg' width='200px'/></p>","null","","","","","",""
"html-keyboard-response","58","53537","0.0-4.0-2.13","null","<p style='position: absolute; top: 40%;right: 20%'><img src='img/s1s.jpeg' width='200px'/></p> <p style='position: absolute; top: 40%;left: 20%'><img src='img/s2.jpeg' width='200px'/></p> <p style='position: absolute; top: 40%;right: 45%'><img src='img/reward.jpeg' width='200px'/></p>","null","","","","","",""
"html-keyboard-response","59","54693","0.0-4.0-3.13","null","<p style=""font-size: 48px"">+</p>","null","","","","","",""
"html-button-response","60","55203","0.0-4.0-0.14","508.9150000057998","","","","0","2","1","1","1"
"html-keyboard-response","61","55704","0.0-4.0-1.14","null","<p style='position: absolute; top: 40%;right: 20%'><img src='img/s1s.jpeg' width='200px'/></p> <p style='position: absolute; top: 40%;left: 20%'><img src='img/s2.jpeg' width='200px'/></p>","null","","","","","",""
"html-keyboard-response","62","56707","0.0-4.0-2.14","null","<p style='position: absolute; top: 40%;right: 20%'><img src='img/s1s.jpeg' width='200px'/></p> <p style='position: absolute; top: 40%;left: 20%'><img src='img/s2.jpeg' width='200px'/></p> <p style='position: absolute; top: 40%;right: 45%'><img src='img/reward.jpeg' width='200px'/></p>","null","","","","","",""
"html-keyboard-response","63","57843","0.0-4.0-3.14","null","<p style=""font-size: 48px"">+</p>","null","","","","","",""
"html-button-response","64","58428","0.0-4.0-0.15","585.0849999987986","","","","0","2","1","0","0"
"html-keyboard-response","65","58932","0.0-4.0-1.15","null","<p style='position: absolute; top: 40%;right: 20%'><img src='img/s1s.jpeg' width='200px'/></p> <p style='position: absolute; top: 40%;left: 20%'><img src='img/s2.jpeg' width='200px'/></p>","null","","","","","",""
"html-keyboard-response","66","59934","0.0-4.0-2.15","null","<p style='position: absolute; top: 40%;right: 20%'><img src='img/s1s.jpeg' width='200px'/></p> <p style='position: absolute; top: 40%;left: 20%'><img src='img/s2.jpeg' width='200px'/></p> <p style='position: absolute; top: 40%;right: 45%'><img src='img/punishment.jpeg' width='200px'/></p>","null","","","","","",""
"html-keyboard-response","67","61031","0.0-4.0-3.15","null","<p style=""font-size: 48px"">+</p>","null","","","","","",""
"html-button-response","68","61625","0.0-4.0-0.16","592.7400000000489","","","","1","1","2","1","0"
"html-keyboard-response","69","62128","0.0-4.0-1.16","null","<p style='position: absolute; top: 40%;left: 20%'><img src='img/s1.jpeg' width='200px'/></p> <p style='position: absolute; top: 40%;right: 20%'><img src='img/s2s.jpeg' width='200px'/></p>","null","","","","","",""
"html-keyboard-response","70","63132","0.0-4.0-2.16","null","<p style='position: absolute; top: 40%;left: 20%'><img src='img/s1.jpeg' width='200px'/></p> <p style='position: absolute; top: 40%;right: 20%'><img src='img/s2s.jpeg' width='200px'/></p> <p style='position: absolute; top: 40%;right: 45%'><img src='img/punishment.jpeg' width='200px'/></p>","null","","","","","",""
"html-keyboard-response","71","64574","0.0-4.0-3.16","null","<p style=""font-size: 48px"">+</p>","null","","","","","",""
"html-button-response","72","65459","0.0-4.0-0.17","883.7100000018836","","","","0","1","2","1","0"
"html-keyboard-response","73","65959","0.0-4.0-1.17","null","<p style='position: absolute; top: 40%;left: 20%'><img src='img/s1s.jpeg' width='200px'/></p> <p style='position: absolute; top: 40%;right: 20%'><img src='img/s2.jpeg' width='200px'/></p>","null","","","","","",""
"html-keyboard-response","74","66964","0.0-4.0-2.17","null","<p style='position: absolute; top: 40%;left: 20%'><img src='img/s1s.jpeg' width='200px'/></p> <p style='position: absolute; top: 40%;right: 20%'><img src='img/s2.jpeg' width='200px'/></p> <p style='position: absolute; top: 40%;right: 45%'><img src='img/reward.jpeg' width='200px'/></p>","null","","","","","",""
"html-keyboard-response","75","67862","0.0-4.0-3.17","null","<p style=""font-size: 48px"">+</p>","null","","","","","",""
"html-button-response","76","68861","0.0-4.0-0.18","998.2149999996182","","","","0","2","1","0","0"
"html-keyboard-response","77","69365","0.0-4.0-1.18","null","<p style='position: absolute; top: 40%;right: 20%'><img src='img/s1s.jpeg' width='200px'/></p> <p style='position: absolute; top: 40%;left: 20%'><img src='img/s2.jpeg' width='200px'/></p>","null","","","","","",""
"html-keyboard-response","78","70370","0.0-4.0-2.18","null","<p style='position: absolute; top: 40%;right: 20%'><img src='img/s1s.jpeg' width='200px'/></p> <p style='position: absolute; top: 40%;left: 20%'><img src='img/s2.jpeg' width='200px'/></p> <p style='position: absolute; top: 40%;right: 45%'><img src='img/punishment.jpeg' width='200px'/></p>","null","","","","","",""
"html-keyboard-response","79","70940","0.0-4.0-3.18","null","<p style=""font-size: 48px"">+</p>","null","","","","","",""
"html-button-response","80","71873","0.0-4.0-0.19","931.5849999984493","","","","1","2","1","1","0"
"html-keyboard-response","81","72373","0.0-4.0-1.19","null","<p style='position: absolute; top: 40%;right: 20%'><img src='img/s1.jpeg' width='200px'/></p> <p style='position: absolute; top: 40%;left: 20%'><img src='img/s2s.jpeg' width='200px'/></p>","null","","","","","",""
"html-keyboard-response","82","73375","0.0-4.0-2.19","null","<p style='position: absolute; top: 40%;right: 20%'><img src='img/s1.jpeg' width='200px'/></p> <p style='position: absolute; top: 40%;left: 20%'><img src='img/s2s.jpeg' width='200px'/></p> <p style='position: absolute; top: 40%;right: 45%'><img src='img/reward.jpeg' width='200px'/></p>","null","","","","","",""
"html-keyboard-response","83","74540","0.0-4.0-3.19","null","<p style=""font-size: 48px"">+</p>","null","","","","","",""
"html-button-response","84","76057","0.0-4.0-0.20","1515.3299999947194","","","","0","2","1","1","0"
"html-keyboard-response","85","76559","0.0-4.0-1.20","null","<p style='position: absolute; top: 40%;right: 20%'><img src='img/s1s.jpeg' width='200px'/></p> <p style='position: absolute; top: 40%;left: 20%'><img src='img/s2.jpeg' width='200px'/></p>","null","","","","","",""
"html-keyboard-response","86","77563","0.0-4.0-2.20","null","<p style='position: absolute; top: 40%;right: 20%'><img src='img/s1s.jpeg' width='200px'/></p> <p style='position: absolute; top: 40%;left: 20%'><img src='img/s2.jpeg' width='200px'/></p> <p style='position: absolute; top: 40%;right: 45%'><img src='img/reward.jpeg' width='200px'/></p>","null","","","","","",""
"html-keyboard-response","87","79008","0.0-4.0-3.20","null","<p style=""font-size: 48px"">+</p>","null","","","","","",""
"html-button-response","88","80039","0.0-4.0-0.21","1029.88500000356","","","","0","1","2","0","0"
"html-keyboard-response","89","80542","0.0-4.0-1.21","null","<p style='position: absolute; top: 40%;left: 20%'><img src='img/s1s.jpeg' width='200px'/></p> <p style='position: absolute; top: 40%;right: 20%'><img src='img/s2.jpeg' width='200px'/></p>","null","","","","","",""
"html-keyboard-response","90","81545","0.0-4.0-2.21","null","<p style='position: absolute; top: 40%;left: 20%'><img src='img/s1s.jpeg' width='200px'/></p> <p style='position: absolute; top: 40%;right: 20%'><img src='img/s2.jpeg' width='200px'/></p> <p style='position: absolute; top: 40%;right: 45%'><img src='img/punishment.jpeg' width='200px'/></p>","null","","","","","",""
"html-keyboard-response","91","82096","0.0-4.0-3.21","null","<p style=""font-size: 48px"">+</p>","null","","","","","",""
"html-button-response","92","82695","0.0-4.0-0.22","597.9499999957625","","","","1","2","1","1","0"
"html-keyboard-response","93","83199","0.0-4.0-1.22","null","<p style='position: absolute; top: 40%;right: 20%'><img src='img/s1.jpeg' width='200px'/></p> <p style='position: absolute; top: 40%;left: 20%'><img src='img/s2s.jpeg' width='200px'/></p>","null","","","","","",""
"html-keyboard-response","94","84204","0.0-4.0-2.22","null","<p style='position: absolute; top: 40%;right: 20%'><img src='img/s1.jpeg' width='200px'/></p> <p style='position: absolute; top: 40%;left: 20%'><img src='img/s2s.jpeg' width='200px'/></p> <p style='position: absolute; top: 40%;right: 45%'><img src='img/reward.jpeg' width='200px'/></p>","null","","","","","",""
"html-keyboard-response","95","85279","0.0-4.0-3.22","null","<p style=""font-size: 48px"">+</p>","null","","","","","",""
"html-button-response","96","86199","0.0-4.0-0.23","918.6049999989336","","","","1","1","2","1","0"
"html-keyboard-response","97","86702","0.0-4.0-1.23","null","<p style='position: absolute; top: 40%;left: 20%'><img src='img/s1.jpeg' width='200px'/></p> <p style='position: absolute; top: 40%;right: 20%'><img src='img/s2s.jpeg' width='200px'/></p>","null","","","","","",""
"html-keyboard-response","98","87704","0.0-4.0-2.23","null","<p style='position: absolute; top: 40%;left: 20%'><img src='img/s1.jpeg' width='200px'/></p> <p style='position: absolute; top: 40%;right: 20%'><img src='img/s2s.jpeg' width='200px'/></p> <p style='position: absolute; top: 40%;right: 45%'><img src='img/punishment.jpeg' width='200px'/></p>","null","","","","","",""
"html-keyboard-response","99","88876","0.0-4.0-3.23","null","<p style=""font-size: 48px"">+</p>","null","","","","","",""
"html-button-response","100","89382","0.0-4.0-0.24","505.1450000028126","","","","0","2","1","1","1"
"html-keyboard-response","101","89884","0.0-4.0-1.24","null","<p style='position: absolute; top: 40%;right: 20%'><img src='img/s1s.jpeg' width='200px'/></p> <p style='position: absolute; top: 40%;left: 20%'><img src='img/s2.jpeg' width='200px'/></p>","null","","","","","",""
"html-keyboard-response","102","90887","0.0-4.0-2.24","null","<p style='position: absolute; top: 40%;right: 20%'><img src='img/s1s.jpeg' width='200px'/></p> <p style='position: absolute; top: 40%;left: 20%'><img src='img/s2.jpeg' width='200px'/></p> <p style='position: absolute; top: 40%;right: 45%'><img src='img/reward.jpeg' width='200px'/></p>","null","","","","","",""
"html-keyboard-response","103","92281","0.0-4.0-3.24","null","<p style=""font-size: 48px"">+</p>","null","","","","","",""
"html-button-response","104","93169","0.0-4.0-0.25","886.4250000042375","","","","0","2","1","1","0"
"html-keyboard-response","105","93671","0.0-4.0-1.25","null","<p style='position: absolute; top: 40%;right: 20%'><img src='img/s1s.jpeg' width='200px'/></p> <p style='position: absolute; top: 40%;left: 20%'><img src='img/s2.jpeg' width='200px'/></p>","null","","","","","",""
"html-keyboard-response","106","94675","0.0-4.0-2.25","null","<p style='position: absolute; top: 40%;right: 20%'><img src='img/s1s.jpeg' width='200px'/></p> <p style='position: absolute; top: 40%;left: 20%'><img src='img/s2.jpeg' width='200px'/></p> <p style='position: absolute; top: 40%;right: 45%'><img src='img/reward.jpeg' width='200px'/></p>","null","","","","","",""
"html-keyboard-response","107","95918","0.0-4.0-3.25","null","<p style=""font-size: 48px"">+</p>","null","","","","","",""
"html-button-response","108","96921","0.0-4.0-0.26","1002.2849999950267","","","","0","1","2","1","0"
"html-keyboard-response","109","97425","0.0-4.0-1.26","null","<p style='position: absolute; top: 40%;left: 20%'><img src='img/s1s.jpeg' width='200px'/></p> <p style='position: absolute; top: 40%;right: 20%'><img src='img/s2.jpeg' width='200px'/></p>","null","","","","","",""
"html-keyboard-response","110","98428","0.0-4.0-2.26","null","<p style='position: absolute; top: 40%;left: 20%'><img src='img/s1s.jpeg' width='200px'/></p> <p style='position: absolute; top: 40%;right: 20%'><img src='img/s2.jpeg' width='200px'/></p> <p style='position: absolute; top: 40%;right: 45%'><img src='img/reward.jpeg' width='200px'/></p>","null","","","","","",""
"html-keyboard-response","111","99015","0.0-4.0-3.26","null","<p style=""font-size: 48px"">+</p>","null","","","","","",""
"html-button-response","112","100013","0.0-4.0-0.27","996.2050000031013","","","","0","2","1","0","1"
"html-keyboard-response","113","100515","0.0-4.0-1.27","null","<p style='position: absolute; top: 40%;right: 20%'><img src='img/s1s.jpeg' width='200px'/></p> <p style='position: absolute; top: 40%;left: 20%'><img src='img/s2.jpeg' width='200px'/></p>","null","","","","","",""
"html-keyboard-response","114","101519","0.0-4.0-2.27","null","<p style='position: absolute; top: 40%;right: 20%'><img src='img/s1s.jpeg' width='200px'/></p> <p style='position: absolute; top: 40%;left: 20%'><img src='img/s2.jpeg' width='200px'/></p> <p style='position: absolute; top: 40%;right: 45%'><img src='img/punishment.jpeg' width='200px'/></p>","null","","","","","",""
"html-keyboard-response","115","102575","0.0-4.0-3.27","null","<p style=""font-size: 48px"">+</p>","null","","","","","",""
"html-button-response","116","103231","0.0-4.0-0.28","654.949999996461","","","","1","1","2","1","0"
"html-keyboard-response","117","103736","0.0-4.0-1.28","null","<p style='position: absolute; top: 40%;left: 20%'><img src='img/s1.jpeg' width='200px'/></p> <p style='position: absolute; top: 40%;right: 20%'><img src='img/s2s.jpeg' width='200px'/></p>","null","","","","","",""
"html-keyboard-response","118","104740","0.0-4.0-2.28","null","<p style='position: absolute; top: 40%;left: 20%'><img src='img/s1.jpeg' width='200px'/></p> <p style='position: absolute; top: 40%;right: 20%'><img src='img/s2s.jpeg' width='200px'/></p> <p style='position: absolute; top: 40%;right: 45%'><img src='img/punishment.jpeg' width='200px'/></p>","null","","","","","",""
"html-keyboard-response","119","105634","0.0-4.0-3.28","null","<p style=""font-size: 48px"">+</p>","null","","","","","",""
"html-button-response","120","106777","0.0-4.0-0.29","1142.0450000005076","","","","0","1","2","1","0"
"html-keyboard-response","121","107281","0.0-4.0-1.29","null","<p style='position: absolute; top: 40%;left: 20%'><img src='img/s1s.jpeg' width='200px'/></p> <p style='position: absolute; top: 40%;right: 20%'><img src='img/s2.jpeg' width='200px'/></p>","null","","","","","",""
"html-keyboard-response","122","108286","0.0-4.0-2.29","null","<p style='position: absolute; top: 40%;left: 20%'><img src='img/s1s.jpeg' width='200px'/></p> <p style='position: absolute; top: 40%;right: 20%'><img src='img/s2.jpeg' width='200px'/></p> <p style='position: absolute; top: 40%;right: 45%'><img src='img/reward.jpeg' width='200px'/></p>","null","","","","","",""
"html-keyboard-response","123","109570","0.0-4.0-3.29","null","<p style=""font-size: 48px"">+</p>","null","","","","","",""
"html-button-response","124","110663","0.0-4.0-0.30","1091.950000001816","","","","0","2","1","1","0"
"html-keyboard-response","125","111166","0.0-4.0-1.30","null","<p style='position: absolute; top: 40%;right: 20%'><img src='img/s1s.jpeg' width='200px'/></p> <p style='position: absolute; top: 40%;left: 20%'><img src='img/s2.jpeg' width='200px'/></p>","null","","","","","",""
"html-keyboard-response","126","112167","0.0-4.0-2.30","null","<p style='position: absolute; top: 40%;right: 20%'><img src='img/s1s.jpeg' width='200px'/></p> <p style='position: absolute; top: 40%;left: 20%'><img src='img/s2.jpeg' width='200px'/></p> <p style='position: absolute; top: 40%;right: 45%'><img src='img/reward.jpeg' width='200px'/></p>","null","","","","","",""
"html-keyboard-response","127","113129","0.0-4.0-3.30","null","<p style=""font-size: 48px"">+</p>","null","","","","","",""
"html-button-response","128","114355","0.0-4.0-0.31","1224.67499999766","","","","1","2","1","1","0"
"html-keyboard-response","129","114858","0.0-4.0-1.31","null","<p style='position: absolute; top: 40%;right: 20%'><img src='img/s1.jpeg' width='200px'/></p> <p style='position: absolute; top: 40%;left: 20%'><img src='img/s2s.jpeg' width='200px'/></p>","null","","","","","",""
"html-keyboard-response","130","115863","0.0-4.0-2.31","null","<p style='position: absolute; top: 40%;right: 20%'><img src='img/s1.jpeg' width='200px'/></p> <p style='position: absolute; top: 40%;left: 20%'><img src='img/s2s.jpeg' width='200px'/></p> <p style='position: absolute; top: 40%;right: 45%'><img src='img/reward.jpeg' width='200px'/></p>","null","","","","","",""
"html-keyboard-response","131","117287","0.0-4.0-3.31","null","<p style=""font-size: 48px"">+</p>","null","","","","","",""
"html-button-response","132","118111","0.0-4.0-0.32","822.600000006787","","","","1","1","2","0","0"
"html-keyboard-response","133","118614","0.0-4.0-1.32","null","<p style='position: absolute; top: 40%;left: 20%'><img src='img/s1.jpeg' width='200px'/></p> <p style='position: absolute; top: 40%;right: 20%'><img src='img/s2s.jpeg' width='200px'/></p>","null","","","","","",""
"html-keyboard-response","134","119617","0.0-4.0-2.32","null","<p style='position: absolute; top: 40%;left: 20%'><img src='img/s1.jpeg' width='200px'/></p> <p style='position: absolute; top: 40%;right: 20%'><img src='img/s2s.jpeg' width='200px'/></p> <p style='position: absolute; top: 40%;right: 45%'><img src='img/punishment.jpeg' width='200px'/></p>","null","","","","","",""
"html-keyboard-response","135","120529","0.0-4.0-3.32","null","<p style=""font-size: 48px"">+</p>","null","","","","","",""
"html-button-response","136","121023","0.0-4.0-0.33","493.5699999987264","","","","0","2","1","1","0"
"html-keyboard-response","137","121527","0.0-4.0-1.33","null","<p style='position: absolute; top: 40%;right: 20%'><img src='img/s1s.jpeg' width='200px'/></p> <p style='position: absolute; top: 40%;left: 20%'><img src='img/s2.jpeg' width='200px'/></p>","null","","","","","",""
"html-keyboard-response","138","122530","0.0-4.0-2.33","null","<p style='position: absolute; top: 40%;right: 20%'><img src='img/s1s.jpeg' width='200px'/></p> <p style='position: absolute; top: 40%;left: 20%'><img src='img/s2.jpeg' width='200px'/></p> <p style='position: absolute; top: 40%;right: 45%'><img src='img/reward.jpeg' width='200px'/></p>","null","","","","","",""
"html-keyboard-response","139","123139","0.0-4.0-3.33","null","<p style=""font-size: 48px"">+</p>","null","","","","","",""
"html-button-response","140","124119","0.0-4.0-0.34","978.9350000064587","","","","0","1","2","1","1"
"html-keyboard-response","141","124622","0.0-4.0-1.34","null","<p style='position: absolute; top: 40%;left: 20%'><img src='img/s1s.jpeg' width='200px'/></p> <p style='position: absolute; top: 40%;right: 20%'><img src='img/s2.jpeg' width='200px'/></p>","null","","","","","",""
"html-keyboard-response","142","125626","0.0-4.0-2.34","null","<p style='position: absolute; top: 40%;left: 20%'><img src='img/s1s.jpeg' width='200px'/></p> <p style='position: absolute; top: 40%;right: 20%'><img src='img/s2.jpeg' width='200px'/></p> <p style='position: absolute; top: 40%;right: 45%'><img src='img/reward.jpeg' width='200px'/></p>","null","","","","","",""
"html-keyboard-response","143","126258","0.0-4.0-3.34","null","<p style=""font-size: 48px"">+</p>","null","","","","","",""
"html-button-response","144","127083","0.0-4.0-0.35","823.6150000011548","","","","0","2","1","1","0"
"html-keyboard-response","145","127588","0.0-4.0-1.35","null","<p style='position: absolute; top: 40%;right: 20%'><img src='img/s1s.jpeg' width='200px'/></p> <p style='position: absolute; top: 40%;left: 20%'><img src='img/s2.jpeg' width='200px'/></p>","null","","","","","",""
"html-keyboard-response","146","128592","0.0-4.0-2.35","null","<p style='position: absolute; top: 40%;right: 20%'><img src='img/s1s.jpeg' width='200px'/></p> <p style='position: absolute; top: 40%;left: 20%'><img src='img/s2.jpeg' width='200px'/></p> <p style='position: absolute; top: 40%;right: 45%'><img src='img/reward.jpeg' width='200px'/></p>","null","","","","","",""
"html-keyboard-response","147","129218","0.0-4.0-3.35","null","<p style=""font-size: 48px"">+</p>","null","","","","","",""
"html-button-response","148","129687","0.0-4.0-0.36","467.54499999951804","","","","0","2","1","0","1"
"html-keyboard-response","149","130189","0.0-4.0-1.36","null","<p style='position: absolute; top: 40%;right: 20%'><img src='img/s1s.jpeg' width='200px'/></p> <p style='position: absolute; top: 40%;left: 20%'><img src='img/s2.jpeg' width='200px'/></p>","null","","","","","",""
"html-keyboard-response","150","131192","0.0-4.0-2.36","null","<p style='position: absolute; top: 40%;right: 20%'><img src='img/s1s.jpeg' width='200px'/></p> <p style='position: absolute; top: 40%;left: 20%'><img src='img/s2.jpeg' width='200px'/></p> <p style='position: absolute; top: 40%;right: 45%'><img src='img/punishment.jpeg' width='200px'/></p>","null","","","","","",""
"html-keyboard-response","151","132075","0.0-4.0-3.36","null","<p style=""font-size: 48px"">+</p>","null","","","","","",""
"html-button-response","152","132813","0.0-4.0-0.37","737.0549999977811","","","","1","1","2","1","0"
"html-keyboard-response","153","133317","0.0-4.0-1.37","null","<p style='position: absolute; top: 40%;left: 20%'><img src='img/s1.jpeg' width='200px'/></p> <p style='position: absolute; top: 40%;right: 20%'><img src='img/s2s.jpeg' width='200px'/></p>","null","","","","","",""
"html-keyboard-response","154","134323","0.0-4.0-2.37","null","<p style='position: absolute; top: 40%;left: 20%'><img src='img/s1.jpeg' width='200px'/></p> <p style='position: absolute; top: 40%;right: 20%'><img src='img/s2s.jpeg' width='200px'/></p> <p style='position: absolute; top: 40%;right: 45%'><img src='img/punishment.jpeg' width='200px'/></p>","null","","","","","",""
"html-keyboard-response","155","135024","0.0-4.0-3.37","null","<p style=""font-size: 48px"">+</p>","null","","","","","",""
"html-button-response","156","136267","0.0-4.0-0.38","1241.3999999989755","","","","0","1","2","1","0"
"html-keyboard-response","157","136768","0.0-4.0-1.38","null","<p style='position: absolute; top: 40%;left: 20%'><img src='img/s1s.jpeg' width='200px'/></p> <p style='position: absolute; top: 40%;right: 20%'><img src='img/s2.jpeg' width='200px'/></p>","null","","","","","",""
"html-keyboard-response","158","137772","0.0-4.0-2.38","null","<p style='position: absolute; top: 40%;left: 20%'><img src='img/s1s.jpeg' width='200px'/></p> <p style='position: absolute; top: 40%;right: 20%'><img src='img/s2.jpeg' width='200px'/></p> <p style='position: absolute; top: 40%;right: 45%'><img src='img/reward.jpeg' width='200px'/></p>","null","","","","","",""
"html-keyboard-response","159","139183","0.0-4.0-3.38","null","<p style=""font-size: 48px"">+</p>","null","","","","","",""
"html-button-response","160","140061","0.0-4.0-0.39","876.445000001695","","","","0","1","2","1","0"
"html-keyboard-response","161","140561","0.0-4.0-1.39","null","<p style='position: absolute; top: 40%;left: 20%'><img src='img/s1s.jpeg' width='200px'/></p> <p style='position: absolute; top: 40%;right: 20%'><img src='img/s2.jpeg' width='200px'/></p>","null","","","","","",""
"html-keyboard-response","162","141566","0.0-4.0-2.39","null","<p style='position: absolute; top: 40%;left: 20%'><img src='img/s1s.jpeg' width='200px'/></p> <p style='position: absolute; top: 40%;right: 20%'><img src='img/s2.jpeg' width='200px'/></p> <p style='position: absolute; top: 40%;right: 45%'><img src='img/reward.jpeg' width='200px'/></p>","null","","","","","",""
"html-keyboard-response","163","142123","0.0-4.0-3.39","null","<p style=""font-size: 48px"">+</p>","null","","","","","",""
"html-button-response","164","143741","0.0-4.0-0.40","1616.9200000003912","","","","0","2","1","1","1"
"html-keyboard-response","165","144243","0.0-4.0-1.40","null","<p style='position: absolute; top: 40%;right: 20%'><img src='img/s1s.jpeg' width='200px'/></p> <p style='position: absolute; top: 40%;left: 20%'><img src='img/s2.jpeg' width='200px'/></p>","null","","","","","",""
"html-keyboard-response","166","145249","0.0-4.0-2.40","null","<p style='position: absolute; top: 40%;right: 20%'><img src='img/s1s.jpeg' width='200px'/></p> <p style='position: absolute; top: 40%;left: 20%'><img src='img/s2.jpeg' width='200px'/></p> <p style='position: absolute; top: 40%;right: 45%'><img src='img/reward.jpeg' width='200px'/></p>","null","","","","","",""
"html-keyboard-response","167","146150","0.0-4.0-3.40","null","<p style=""font-size: 48px"">+</p>","null","","","","","",""
"html-button-response","168","147331","0.0-4.0-0.41","1179.6849999955157","","","","0","1","2","0","1"
"html-keyboard-response","169","147834","0.0-4.0-1.41","null","<p style='position: absolute; top: 40%;left: 20%'><img src='img/s1s.jpeg' width='200px'/></p> <p style='position: absolute; top: 40%;right: 20%'><img src='img/s2.jpeg' width='200px'/></p>","null","","","","","",""
"html-keyboard-response","170","148839","0.0-4.0-2.41","null","<p style='position: absolute; top: 40%;left: 20%'><img src='img/s1s.jpeg' width='200px'/></p> <p style='position: absolute; top: 40%;right: 20%'><img src='img/s2.jpeg' width='200px'/></p> <p style='position: absolute; top: 40%;right: 45%'><img src='img/punishment.jpeg' width='200px'/></p>","null","","","","","",""
"html-keyboard-response","171","150022","0.0-4.0-3.41","null","<p style=""font-size: 48px"">+</p>","null","","","","","",""
"html-button-response","172","150883","0.0-4.0-0.42","860.0200000000768","","","","1","1","2","0","1"
"html-keyboard-response","173","151384","0.0-4.0-1.42","null","<p style='position: absolute; top: 40%;left: 20%'><img src='img/s1.jpeg' width='200px'/></p> <p style='position: absolute; top: 40%;right: 20%'><img src='img/s2s.jpeg' width='200px'/></p>","null","","","","","",""
"html-keyboard-response","174","152386","0.0-4.0-2.42","null","<p style='position: absolute; top: 40%;left: 20%'><img src='img/s1.jpeg' width='200px'/></p> <p style='position: absolute; top: 40%;right: 20%'><img src='img/s2s.jpeg' width='200px'/></p> <p style='position: absolute; top: 40%;right: 45%'><img src='img/reward.jpeg' width='200px'/></p>","null","","","","","",""
"html-keyboard-response","175","153547","0.0-4.0-3.42","null","<p style=""font-size: 48px"">+</p>","null","","","","","",""
"html-button-response","176","155543","0.0-4.0-0.43","1995.7500000018626","","","","1","1","2","0","1"
"html-keyboard-response","177","156048","0.0-4.0-1.43","null","<p style='position: absolute; top: 40%;left: 20%'><img src='img/s1.jpeg' width='200px'/></p> <p style='position: absolute; top: 40%;right: 20%'><img src='img/s2s.jpeg' width='200px'/></p>","null","","","","","",""
"html-keyboard-response","178","157053","0.0-4.0-2.43","null","<p style='position: absolute; top: 40%;left: 20%'><img src='img/s1.jpeg' width='200px'/></p> <p style='position: absolute; top: 40%;right: 20%'><img src='img/s2s.jpeg' width='200px'/></p> <p style='position: absolute; top: 40%;right: 45%'><img src='img/reward.jpeg' width='200px'/></p>","null","","","","","",""
"html-keyboard-response","179","158144","0.0-4.0-3.43","null","<p style=""font-size: 48px"">+</p>","null","","","","","",""
"html-button-response","180","159475","0.0-4.0-0.44","1329.700000002049","","","","1","2","1","0","0"
"html-keyboard-response","181","159977","0.0-4.0-1.44","null","<p style='position: absolute; top: 40%;right: 20%'><img src='img/s1.jpeg' width='200px'/></p> <p style='position: absolute; top: 40%;left: 20%'><img src='img/s2s.jpeg' width='200px'/></p>","null","","","","","",""
"html-keyboard-response","182","160982","0.0-4.0-2.44","null","<p style='position: absolute; top: 40%;right: 20%'><img src='img/s1.jpeg' width='200px'/></p> <p style='position: absolute; top: 40%;left: 20%'><img src='img/s2s.jpeg' width='200px'/></p> <p style='position: absolute; top: 40%;right: 45%'><img src='img/reward.jpeg' width='200px'/></p>","null","","","","","",""
"html-keyboard-response","183","161758","0.0-4.0-3.44","null","<p style=""font-size: 48px"">+</p>","null","","","","","",""
"html-button-response","184","162399","0.0-4.0-0.45","640.1400000031572","","","","1","2","1","0","1"
"html-keyboard-response","185","162904","0.0-4.0-1.45","null","<p style='position: absolute; top: 40%;right: 20%'><img src='img/s1.jpeg' width='200px'/></p> <p style='position: absolute; top: 40%;left: 20%'><img src='img/s2s.jpeg' width='200px'/></p>","null","","","","","",""
"html-keyboard-response","186","163908","0.0-4.0-2.45","null","<p style='position: absolute; top: 40%;right: 20%'><img src='img/s1.jpeg' width='200px'/></p> <p style='position: absolute; top: 40%;left: 20%'><img src='img/s2s.jpeg' width='200px'/></p> <p style='position: absolute; top: 40%;right: 45%'><img src='img/punishment.jpeg' width='200px'/></p>","null","","","","","",""
"html-keyboard-response","187","164655","0.0-4.0-3.45","null","<p style=""font-size: 48px"">+</p>","null","","","","","",""
"html-button-response","188","165901","0.0-4.0-0.46","1244.2399999999907","","","","0","2","1","1","0"
"html-keyboard-response","189","166404","0.0-4.0-1.46","null","<p style='position: absolute; top: 40%;right: 20%'><img src='img/s1s.jpeg' width='200px'/></p> <p style='position: absolute; top: 40%;left: 20%'><img src='img/s2.jpeg' width='200px'/></p>","null","","","","","",""
"html-keyboard-response","190","167407","0.0-4.0-2.46","null","<p style='position: absolute; top: 40%;right: 20%'><img src='img/s1s.jpeg' width='200px'/></p> <p style='position: absolute; top: 40%;left: 20%'><img src='img/s2.jpeg' width='200px'/></p> <p style='position: absolute; top: 40%;right: 45%'><img src='img/reward.jpeg' width='200px'/></p>","null","","","","","",""
"html-keyboard-response","191","168365","0.0-4.0-3.46","null","<p style=""font-size: 48px"">+</p>","null","","","","","",""
"html-button-response","192","169323","0.0-4.0-0.47","956.2699999951292","","","","0","1","2","0","1"
"html-keyboard-response","193","169824","0.0-4.0-1.47","null","<p style='position: absolute; top: 40%;left: 20%'><img src='img/s1s.jpeg' width='200px'/></p> <p style='position: absolute; top: 40%;right: 20%'><img src='img/s2.jpeg' width='200px'/></p>","null","","","","","",""
"html-keyboard-response","194","170827","0.0-4.0-2.47","null","<p style='position: absolute; top: 40%;left: 20%'><img src='img/s1s.jpeg' width='200px'/></p> <p style='position: absolute; top: 40%;right: 20%'><img src='img/s2.jpeg' width='200px'/></p> <p style='position: absolute; top: 40%;right: 45%'><img src='img/punishment.jpeg' width='200px'/></p>","null","","","","","",""
"html-keyboard-response","195","171733","0.0-4.0-3.47","null","<p style=""font-size: 48px"">+</p>","null","","","","","",""
"html-button-response","196","172359","0.0-4.0-0.48","625.2299999978277","","","","1","2","1","0","1"
"html-keyboard-response","197","172865","0.0-4.0-1.48","null","<p style='position: absolute; top: 40%;right: 20%'><img src='img/s1.jpeg' width='200px'/></p> <p style='position: absolute; top: 40%;left: 20%'><img src='img/s2s.jpeg' width='200px'/></p>","null","","","","","",""
"html-keyboard-response","198","173869","0.0-4.0-2.48","null","<p style='position: absolute; top: 40%;right: 20%'><img src='img/s1.jpeg' width='200px'/></p> <p style='position: absolute; top: 40%;left: 20%'><img src='img/s2s.jpeg' width='200px'/></p> <p style='position: absolute; top: 40%;right: 45%'><img src='img/punishment.jpeg' width='200px'/></p>","null","","","","","",""
"html-keyboard-response","199","174610","0.0-4.0-3.48","null","<p style=""font-size: 48px"">+</p>","null","","","","","",""
"html-button-response","200","175423","0.0-4.0-0.49","811.4249999998719","","","","0","1","2","0","1"
"html-keyboard-response","201","175925","0.0-4.0-1.49","null","<p style='position: absolute; top: 40%;left: 20%'><img src='img/s1s.jpeg' width='200px'/></p> <p style='position: absolute; top: 40%;right: 20%'><img src='img/s2.jpeg' width='200px'/></p>","null","","","","","",""
"html-keyboard-response","202","176928","0.0-4.0-2.49","null","<p style='position: absolute; top: 40%;left: 20%'><img src='img/s1s.jpeg' width='200px'/></p> <p style='position: absolute; top: 40%;right: 20%'><img src='img/s2.jpeg' width='200px'/></p> <p style='position: absolute; top: 40%;right: 45%'><img src='img/punishment.jpeg' width='200px'/></p>","null","","","","","",""
"html-keyboard-response","203","178112","0.0-4.0-3.49","null","<p style=""font-size: 48px"">+</p>","null","","","","","",""
"html-button-response","204","178979","0.0-4.0-0.50","865.7250000032946","","","","1","2","1","0","0"
"html-keyboard-response","205","179482","0.0-4.0-1.50","null","<p style='position: absolute; top: 40%;right: 20%'><img src='img/s1.jpeg' width='200px'/></p> <p style='position: absolute; top: 40%;left: 20%'><img src='img/s2s.jpeg' width='200px'/></p>","null","","","","","",""
"html-keyboard-response","206","180486","0.0-4.0-2.50","null","<p style='position: absolute; top: 40%;right: 20%'><img src='img/s1.jpeg' width='200px'/></p> <p style='position: absolute; top: 40%;left: 20%'><img src='img/s2s.jpeg' width='200px'/></p> <p style='position: absolute; top: 40%;right: 45%'><img src='img/reward.jpeg' width='200px'/></p>","null","","","","","",""
"html-keyboard-response","207","181665","0.0-4.0-3.50","null","<p style=""font-size: 48px"">+</p>","null","","","","","",""
"html-button-response","208","182811","0.0-4.0-0.51","1144.9149999971269","","","","1","1","2","1","1"
"html-keyboard-response","209","183316","0.0-4.0-1.51","null","<p style='position: absolute; top: 40%;left: 20%'><img src='img/s1.jpeg' width='200px'/></p> <p style='position: absolute; top: 40%;right: 20%'><img src='img/s2s.jpeg' width='200px'/></p>","null","","","","","",""
"html-keyboard-response","210","184317","0.0-4.0-2.51","null","<p style='position: absolute; top: 40%;left: 20%'><img src='img/s1.jpeg' width='200px'/></p> <p style='position: absolute; top: 40%;right: 20%'><img src='img/s2s.jpeg' width='200px'/></p> <p style='position: absolute; top: 40%;right: 45%'><img src='img/reward.jpeg' width='200px'/></p>","null","","","","","",""
"html-keyboard-response","211","185214","0.0-4.0-3.51","null","<p style=""font-size: 48px"">+</p>","null","","","","","",""
"html-button-response","212","186129","0.0-4.0-0.52","914.1949999975623","","","","1","1","2","0","1"
"html-keyboard-response","213","186633","0.0-4.0-1.52","null","<p style='position: absolute; top: 40%;left: 20%'><img src='img/s1.jpeg' width='200px'/></p> <p style='position: absolute; top: 40%;right: 20%'><img src='img/s2s.jpeg' width='200px'/></p>","null","","","","","",""
"html-keyboard-response","214","187637","0.0-4.0-2.52","null","<p style='position: absolute; top: 40%;left: 20%'><img src='img/s1.jpeg' width='200px'/></p> <p style='position: absolute; top: 40%;right: 20%'><img src='img/s2s.jpeg' width='200px'/></p> <p style='position: absolute; top: 40%;right: 45%'><img src='img/reward.jpeg' width='200px'/></p>","null","","","","","",""
"html-keyboard-response","215","188467","0.0-4.0-3.52","null","<p style=""font-size: 48px"">+</p>","null","","","","","",""
"html-button-response","216","189077","0.0-4.0-0.53","608.8700000036624","","","","1","1","2","1","1"
"html-keyboard-response","217","189582","0.0-4.0-1.53","null","<p style='position: absolute; top: 40%;left: 20%'><img src='img/s1.jpeg' width='200px'/></p> <p style='position: absolute; top: 40%;right: 20%'><img src='img/s2s.jpeg' width='200px'/></p>","null","","","","","",""
"html-keyboard-response","218","190586","0.0-4.0-2.53","null","<p style='position: absolute; top: 40%;left: 20%'><img src='img/s1.jpeg' width='200px'/></p> <p style='position: absolute; top: 40%;right: 20%'><img src='img/s2s.jpeg' width='200px'/></p> <p style='position: absolute; top: 40%;right: 45%'><img src='img/reward.jpeg' width='200px'/></p>","null","","","","","",""
"html-keyboard-response","219","191461","0.0-4.0-3.53","null","<p style=""font-size: 48px"">+</p>","null","","","","","",""
"html-button-response","220","192527","0.0-4.0-0.54","1065.1249999937136","","","","1","2","1","0","1"
"html-keyboard-response","221","193031","0.0-4.0-1.54","null","<p style='position: absolute; top: 40%;right: 20%'><img src='img/s1.jpeg' width='200px'/></p> <p style='position: absolute; top: 40%;left: 20%'><img src='img/s2s.jpeg' width='200px'/></p>","null","","","","","",""
"html-keyboard-response","222","194034","0.0-4.0-2.54","null","<p style='position: absolute; top: 40%;right: 20%'><img src='img/s1.jpeg' width='200px'/></p> <p style='position: absolute; top: 40%;left: 20%'><img src='img/s2s.jpeg' width='200px'/></p> <p style='position: absolute; top: 40%;right: 45%'><img src='img/punishment.jpeg' width='200px'/></p>","null","","","","","",""
"html-keyboard-response","223","194751","0.0-4.0-3.54","null","<p style=""font-size: 48px"">+</p>","null","","","","","",""
"html-button-response","224","195547","0.0-4.0-0.55","795.059999996738","","","","1","2","1","0","1"
"html-keyboard-response","225","196048","0.0-4.0-1.55","null","<p style='position: absolute; top: 40%;right: 20%'><img src='img/s1.jpeg' width='200px'/></p> <p style='position: absolute; top: 40%;left: 20%'><img src='img/s2s.jpeg' width='200px'/></p>","null","","","","","",""
"html-keyboard-response","226","197053","0.0-4.0-2.55","null","<p style='position: absolute; top: 40%;right: 20%'><img src='img/s1.jpeg' width='200px'/></p> <p style='position: absolute; top: 40%;left: 20%'><img src='img/s2s.jpeg' width='200px'/></p> <p style='position: absolute; top: 40%;right: 45%'><img src='img/punishment.jpeg' width='200px'/></p>","null","","","","","",""
"html-keyboard-response","227","197819","0.0-4.0-3.55","null","<p style=""font-size: 48px"">+</p>","null","","","","","",""
"html-button-response","228","198999","0.0-4.0-0.56","1178.7350000013248","","","","0","2","1","0","1"
"html-keyboard-response","229","199502","0.0-4.0-1.56","null","<p style='position: absolute; top: 40%;right: 20%'><img src='img/s1s.jpeg' width='200px'/></p> <p style='position: absolute; top: 40%;left: 20%'><img src='img/s2.jpeg' width='200px'/></p>","null","","","","","",""
"html-keyboard-response","230","200506","0.0-4.0-2.56","null","<p style='position: absolute; top: 40%;right: 20%'><img src='img/s1s.jpeg' width='200px'/></p> <p style='position: absolute; top: 40%;left: 20%'><img src='img/s2.jpeg' width='200px'/></p> <p style='position: absolute; top: 40%;right: 45%'><img src='img/punishment.jpeg' width='200px'/></p>","null","","","","","",""
"html-keyboard-response","231","201221","0.0-4.0-3.56","null","<p style=""font-size: 48px"">+</p>","null","","","","","",""
"html-button-response","232","202187","0.0-4.0-0.57","965.3150000012829","","","","1","1","2","0","0"
"html-keyboard-response","233","202688","0.0-4.0-1.57","null","<p style='position: absolute; top: 40%;left: 20%'><img src='img/s1.jpeg' width='200px'/></p> <p style='position: absolute; top: 40%;right: 20%'><img src='img/s2s.jpeg' width='200px'/></p>","null","","","","","",""
"html-keyboard-response","234","203693","0.0-4.0-2.57","null","<p style='position: absolute; top: 40%;left: 20%'><img src='img/s1.jpeg' width='200px'/></p> <p style='position: absolute; top: 40%;right: 20%'><img src='img/s2s.jpeg' width='200px'/></p> <p style='position: absolute; top: 40%;right: 45%'><img src='img/punishment.jpeg' width='200px'/></p>","null","","","","","",""
"html-keyboard-response","235","204815","0.0-4.0-3.57","null","<p style=""font-size: 48px"">+</p>","null","","","","","",""
"html-button-response","236","205859","0.0-4.0-0.58","1043.1600000010803","","","","0","1","2","0","1"
"html-keyboard-response","237","206363","0.0-4.0-1.58","null","<p style='position: absolute; top: 40%;left: 20%'><img src='img/s1s.jpeg' width='200px'/></p> <p style='position: absolute; top: 40%;right: 20%'><img src='img/s2.jpeg' width='200px'/></p>","null","","","","","",""
"html-keyboard-response","238","207367","0.0-4.0-2.58","null","<p style='position: absolute; top: 40%;left: 20%'><img src='img/s1s.jpeg' width='200px'/></p> <p style='position: absolute; top: 40%;right: 20%'><img src='img/s2.jpeg' width='200px'/></p> <p style='position: absolute; top: 40%;right: 45%'><img src='img/punishment.jpeg' width='200px'/></p>","null","","","","","",""
"html-keyboard-response","239","207945","0.0-4.0-3.58","null","<p style=""font-size: 48px"">+</p>","null","","","","","",""
"html-button-response","240","208729","0.0-4.0-0.59","782.8449999942677","","","","1","2","1","0","1"
"html-keyboard-response","241","209231","0.0-4.0-1.59","null","<p style='position: absolute; top: 40%;right: 20%'><img src='img/s1.jpeg' width='200px'/></p> <p style='position: absolute; top: 40%;left: 20%'><img src='img/s2s.jpeg' width='200px'/></p>","null","","","","","",""
"html-keyboard-response","242","210237","0.0-4.0-2.59","null","<p style='position: absolute; top: 40%;right: 20%'><img src='img/s1.jpeg' width='200px'/></p> <p style='position: absolute; top: 40%;left: 20%'><img src='img/s2s.jpeg' width='200px'/></p> <p style='position: absolute; top: 40%;right: 45%'><img src='img/punishment.jpeg' width='200px'/></p>","null","","","","","",""
"html-keyboard-response","243","211425","0.0-4.0-3.59","null","<p style=""font-size: 48px"">+</p>","null","","","","","",""
"html-button-response","244","212483","0.0-4.0-0.60","1057.1399999971618","","","","0","2","1","1","1"
"html-keyboard-response","245","212986","0.0-4.0-1.60","null","<p style='position: absolute; top: 40%;right: 20%'><img src='img/s1s.jpeg' width='200px'/></p> <p style='position: absolute; top: 40%;left: 20%'><img src='img/s2.jpeg' width='200px'/></p>","null","","","","","",""
"html-keyboard-response","246","213991","0.0-4.0-2.60","null","<p style='position: absolute; top: 40%;right: 20%'><img src='img/s1s.jpeg' width='200px'/></p> <p style='position: absolute; top: 40%;left: 20%'><img src='img/s2.jpeg' width='200px'/></p> <p style='position: absolute; top: 40%;right: 45%'><img src='img/reward.jpeg' width='200px'/></p>","null","","","","","",""
"html-keyboard-response","247","214563","0.0-4.0-3.60","null","<p style=""font-size: 48px"">+</p>","null","","","","","",""
"html-button-response","248","215793","0.0-4.0-0.61","1229.0550000034273","","","","0","1","2","1","1"
"html-keyboard-response","249","216295","0.0-4.0-1.61","null","<p style='position: absolute; top: 40%;left: 20%'><img src='img/s1s.jpeg' width='200px'/></p> <p style='position: absolute; top: 40%;right: 20%'><img src='img/s2.jpeg' width='200px'/></p>","null","","","","","",""
"html-keyboard-response","250","217298","0.0-4.0-2.61","null","<p style='position: absolute; top: 40%;left: 20%'><img src='img/s1s.jpeg' width='200px'/></p> <p style='position: absolute; top: 40%;right: 20%'><img src='img/s2.jpeg' width='200px'/></p> <p style='position: absolute; top: 40%;right: 45%'><img src='img/reward.jpeg' width='200px'/></p>","null","","","","","",""
"html-keyboard-response","251","218367","0.0-4.0-3.61","null","<p style=""font-size: 48px"">+</p>","null","","","","","",""
"html-button-response","252","219029","0.0-4.0-0.62","661.1499999999069","","","","0","2","1","0","1"
"html-keyboard-response","253","219533","0.0-4.0-1.62","null","<p style='position: absolute; top: 40%;right: 20%'><img src='img/s1s.jpeg' width='200px'/></p> <p style='position: absolute; top: 40%;left: 20%'><img src='img/s2.jpeg' width='200px'/></p>","null","","","","","",""
"html-keyboard-response","254","220539","0.0-4.0-2.62","null","<p style='position: absolute; top: 40%;right: 20%'><img src='img/s1s.jpeg' width='200px'/></p> <p style='position: absolute; top: 40%;left: 20%'><img src='img/s2.jpeg' width='200px'/></p> <p style='position: absolute; top: 40%;right: 45%'><img src='img/punishment.jpeg' width='200px'/></p>","null","","","","","",""
"html-keyboard-response","255","221920","0.0-4.0-3.62","null","<p style=""font-size: 48px"">+</p>","null","","","","","",""
"html-button-response","256","222411","0.0-4.0-0.63","490.37500000122236","","","","1","1","2","0","1"
"html-keyboard-response","257","222916","0.0-4.0-1.63","null","<p style='position: absolute; top: 40%;left: 20%'><img src='img/s1.jpeg' width='200px'/></p> <p style='position: absolute; top: 40%;right: 20%'><img src='img/s2s.jpeg' width='200px'/></p>","null","","","","","",""
"html-keyboard-response","258","223922","0.0-4.0-2.63","null","<p style='position: absolute; top: 40%;left: 20%'><img src='img/s1.jpeg' width='200px'/></p> <p style='position: absolute; top: 40%;right: 20%'><img src='img/s2s.jpeg' width='200px'/></p> <p style='position: absolute; top: 40%;right: 45%'><img src='img/reward.jpeg' width='200px'/></p>","null","","","","","",""
"html-keyboard-response","259","224526","0.0-4.0-3.63","null","<p style=""font-size: 48px"">+</p>","null","","","","","",""
"html-button-response","260","225371","0.0-4.0-0.64","843.7300000005052","","","","1","1","2","0","0"
"html-keyboard-response","261","225873","0.0-4.0-1.64","null","<p style='position: absolute; top: 40%;left: 20%'><img src='img/s1.jpeg' width='200px'/></p> <p style='position: absolute; top: 40%;right: 20%'><img src='img/s2s.jpeg' width='200px'/></p>","null","","","","","",""
"html-keyboard-response","262","226875","0.0-4.0-2.64","null","<p style='position: absolute; top: 40%;left: 20%'><img src='img/s1.jpeg' width='200px'/></p> <p style='position: absolute; top: 40%;right: 20%'><img src='img/s2s.jpeg' width='200px'/></p> <p style='position: absolute; top: 40%;right: 45%'><img src='img/punishment.jpeg' width='200px'/></p>","null","","","","","",""
"html-keyboard-response","263","228172","0.0-4.0-3.64","null","<p style=""font-size: 48px"">+</p>","null","","","","","",""
"html-button-response","264","229183","0.0-4.0-0.65","1010.6299999970361","","","","0","1","2","0","1"
"html-keyboard-response","265","229688","0.0-4.0-1.65","null","<p style='position: absolute; top: 40%;left: 20%'><img src='img/s1s.jpeg' width='200px'/></p> <p style='position: absolute; top: 40%;right: 20%'><img src='img/s2.jpeg' width='200px'/></p>","null","","","","","",""
"html-keyboard-response","266","230691","0.0-4.0-2.65","null","<p style='position: absolute; top: 40%;left: 20%'><img src='img/s1s.jpeg' width='200px'/></p> <p style='position: absolute; top: 40%;right: 20%'><img src='img/s2.jpeg' width='200px'/></p> <p style='position: absolute; top: 40%;right: 45%'><img src='img/punishment.jpeg' width='200px'/></p>","null","","","","","",""
"html-keyboard-response","267","231857","0.0-4.0-3.65","null","<p style=""font-size: 48px"">+</p>","null","","","","","",""
"html-button-response","268","232417","0.0-4.0-0.66","558.9249999975436","","","","1","2","1","0","1"
"html-keyboard-response","269","232920","0.0-4.0-1.66","null","<p style='position: absolute; top: 40%;right: 20%'><img src='img/s1.jpeg' width='200px'/></p> <p style='position: absolute; top: 40%;left: 20%'><img src='img/s2s.jpeg' width='200px'/></p>","null","","","","","",""
"html-keyboard-response","270","233924","0.0-4.0-2.66","null","<p style='position: absolute; top: 40%;right: 20%'><img src='img/s1.jpeg' width='200px'/></p> <p style='position: absolute; top: 40%;left: 20%'><img src='img/s2s.jpeg' width='200px'/></p> <p style='position: absolute; top: 40%;right: 45%'><img src='img/punishment.jpeg' width='200px'/></p>","null","","","","","",""
"html-keyboard-response","271","234841","0.0-4.0-3.66","null","<p style=""font-size: 48px"">+</p>","null","","","","","",""
"html-button-response","272","236185","0.0-4.0-0.67","1342.740000000049","","","","0","2","1","0","1"
"html-keyboard-response","273","236686","0.0-4.0-1.67","null","<p style='position: absolute; top: 40%;right: 20%'><img src='img/s1s.jpeg' width='200px'/></p> <p style='position: absolute; top: 40%;left: 20%'><img src='img/s2.jpeg' width='200px'/></p>","null","","","","","",""
"html-keyboard-response","274","237691","0.0-4.0-2.67","null","<p style='position: absolute; top: 40%;right: 20%'><img src='img/s1s.jpeg' width='200px'/></p> <p style='position: absolute; top: 40%;left: 20%'><img src='img/s2.jpeg' width='200px'/></p> <p style='position: absolute; top: 40%;right: 45%'><img src='img/punishment.jpeg' width='200px'/></p>","null","","","","","",""
"html-keyboard-response","275","239106","0.0-4.0-3.67","null","<p style=""font-size: 48px"">+</p>","null","","","","","",""
"html-button-response","276","240135","0.0-4.0-0.68","1028.0149999962305","","","","1","2","1","0","1"
"html-keyboard-response","277","240638","0.0-4.0-1.68","null","<p style='position: absolute; top: 40%;right: 20%'><img src='img/s1.jpeg' width='200px'/></p> <p style='position: absolute; top: 40%;left: 20%'><img src='img/s2s.jpeg' width='200px'/></p>","null","","","","","",""
"html-keyboard-response","278","241639","0.0-4.0-2.68","null","<p style='position: absolute; top: 40%;right: 20%'><img src='img/s1.jpeg' width='200px'/></p> <p style='position: absolute; top: 40%;left: 20%'><img src='img/s2s.jpeg' width='200px'/></p> <p style='position: absolute; top: 40%;right: 45%'><img src='img/punishment.jpeg' width='200px'/></p>","null","","","","","",""
"html-keyboard-response","279","242225","0.0-4.0-3.68","null","<p style=""font-size: 48px"">+</p>","null","","","","","",""
"html-button-response","280","242777","0.0-4.0-0.69","551.6399999978603","","","","0","1","2","0","0"
"html-keyboard-response","281","243281","0.0-4.0-1.69","null","<p style='position: absolute; top: 40%;left: 20%'><img src='img/s1s.jpeg' width='200px'/></p> <p style='position: absolute; top: 40%;right: 20%'><img src='img/s2.jpeg' width='200px'/></p>","null","","","","","",""
"html-keyboard-response","282","244284","0.0-4.0-2.69","null","<p style='position: absolute; top: 40%;left: 20%'><img src='img/s1s.jpeg' width='200px'/></p> <p style='position: absolute; top: 40%;right: 20%'><img src='img/s2.jpeg' width='200px'/></p> <p style='position: absolute; top: 40%;right: 45%'><img src='img/punishment.jpeg' width='200px'/></p>","null","","","","","",""
"html-keyboard-response","283","245682","0.0-4.0-3.69","null","<p style=""font-size: 48px"">+</p>","null","","","","","",""
"html-button-response","284","246871","0.0-4.0-0.70","1188.1649999995716","","","","1","1","2","0","1"
"html-keyboard-response","285","247374","0.0-4.0-1.70","null","<p style='position: absolute; top: 40%;left: 20%'><img src='img/s1.jpeg' width='200px'/></p> <p style='position: absolute; top: 40%;right: 20%'><img src='img/s2s.jpeg' width='200px'/></p>","null","","","","","",""
"html-keyboard-response","286","248375","0.0-4.0-2.70","null","<p style='position: absolute; top: 40%;left: 20%'><img src='img/s1.jpeg' width='200px'/></p> <p style='position: absolute; top: 40%;right: 20%'><img src='img/s2s.jpeg' width='200px'/></p> <p style='position: absolute; top: 40%;right: 45%'><img src='img/reward.jpeg' width='200px'/></p>","null","","","","","",""
"html-keyboard-response","287","249039","0.0-4.0-3.70","null","<p style=""font-size: 48px"">+</p>","null","","","","","",""
"html-button-response","288","249823","0.0-4.0-0.71","783.1599999990431","","","","1","1","2","0","1"
"html-keyboard-response","289","250328","0.0-4.0-1.71","null","<p style='position: absolute; top: 40%;left: 20%'><img src='img/s1.jpeg' width='200px'/></p> <p style='position: absolute; top: 40%;right: 20%'><img src='img/s2s.jpeg' width='200px'/></p>","null","","","","","",""
"html-keyboard-response","290","251329","0.0-4.0-2.71","null","<p style='position: absolute; top: 40%;left: 20%'><img src='img/s1.jpeg' width='200px'/></p> <p style='position: absolute; top: 40%;right: 20%'><img src='img/s2s.jpeg' width='200px'/></p> <p style='position: absolute; top: 40%;right: 45%'><img src='img/reward.jpeg' width='200px'/></p>","null","","","","","",""
"html-keyboard-response","291","252196","0.0-4.0-3.71","null","<p style=""font-size: 48px"">+</p>","null","","","","","",""
"html-button-response","292","253075","0.0-4.0-0.72","877.8349999993225","","","","1","2","1","0","1"
"html-keyboard-response","293","253579","0.0-4.0-1.72","null","<p style='position: absolute; top: 40%;right: 20%'><img src='img/s1.jpeg' width='200px'/></p> <p style='position: absolute; top: 40%;left: 20%'><img src='img/s2s.jpeg' width='200px'/></p>","null","","","","","",""
"html-keyboard-response","294","254581","0.0-4.0-2.72","null","<p style='position: absolute; top: 40%;right: 20%'><img src='img/s1.jpeg' width='200px'/></p> <p style='position: absolute; top: 40%;left: 20%'><img src='img/s2s.jpeg' width='200px'/></p> <p style='position: absolute; top: 40%;right: 45%'><img src='img/punishment.jpeg' width='200px'/></p>","null","","","","","",""
"html-keyboard-response","295","255634","0.0-4.0-3.72","null","<p style=""font-size: 48px"">+</p>","null","","","","","",""
"html-button-response","296","256667","0.0-4.0-0.73","1032.565000001341","","","","0","2","1","0","1"
"html-keyboard-response","297","257172","0.0-4.0-1.73","null","<p style='position: absolute; top: 40%;right: 20%'><img src='img/s1s.jpeg' width='200px'/></p> <p style='position: absolute; top: 40%;left: 20%'><img src='img/s2.jpeg' width='200px'/></p>","null","","","","","",""
"html-keyboard-response","298","258175","0.0-4.0-2.73","null","<p style='position: absolute; top: 40%;right: 20%'><img src='img/s1s.jpeg' width='200px'/></p> <p style='position: absolute; top: 40%;left: 20%'><img src='img/s2.jpeg' width='200px'/></p> <p style='position: absolute; top: 40%;right: 45%'><img src='img/punishment.jpeg' width='200px'/></p>","null","","","","","",""
"html-keyboard-response","299","259467","0.0-4.0-3.73","null","<p style=""font-size: 48px"">+</p>","null","","","","","",""
"html-button-response","300","260549","0.0-4.0-0.74","1080.9950000038953","","","","1","2","1","0","0"
"html-keyboard-response","301","261055","0.0-4.0-1.74","null","<p style='position: absolute; top: 40%;right: 20%'><img src='img/s1.jpeg' width='200px'/></p> <p style='position: absolute; top: 40%;left: 20%'><img src='img/s2s.jpeg' width='200px'/></p>","null","","","","","",""
"html-keyboard-response","302","262060","0.0-4.0-2.74","null","<p style='position: absolute; top: 40%;right: 20%'><img src='img/s1.jpeg' width='200px'/></p> <p style='position: absolute; top: 40%;left: 20%'><img src='img/s2s.jpeg' width='200px'/></p> <p style='position: absolute; top: 40%;right: 45%'><img src='img/reward.jpeg' width='200px'/></p>","null","","","","","",""
"html-keyboard-response","303","262653","0.0-4.0-3.74","null","<p style=""font-size: 48px"">+</p>","null","","","","","",""
"html-button-response","304","263279","0.0-4.0-0.75","625.5149999997229","","","","1","2","1","1","1"
"html-keyboard-response","305","263783","0.0-4.0-1.75","null","<p style='position: absolute; top: 40%;right: 20%'><img src='img/s1.jpeg' width='200px'/></p> <p style='position: absolute; top: 40%;left: 20%'><img src='img/s2s.jpeg' width='200px'/></p>","null","","","","","",""
"html-keyboard-response","306","264787","0.0-4.0-2.75","null","<p style='position: absolute; top: 40%;right: 20%'><img src='img/s1.jpeg' width='200px'/></p> <p style='position: absolute; top: 40%;left: 20%'><img src='img/s2s.jpeg' width='200px'/></p> <p style='position: absolute; top: 40%;right: 45%'><img src='img/punishment.jpeg' width='200px'/></p>","null","","","","","",""
"html-keyboard-response","307","266160","0.0-4.0-3.75","null","<p style=""font-size: 48px"">+</p>","null","","","","","",""
"html-button-response","308","266991","0.0-4.0-0.76","829.939999995986","","","","0","2","1","0","1"
"html-keyboard-response","309","267493","0.0-4.0-1.76","null","<p style='position: absolute; top: 40%;right: 20%'><img src='img/s1s.jpeg' width='200px'/></p> <p style='position: absolute; top: 40%;left: 20%'><img src='img/s2.jpeg' width='200px'/></p>","null","","","","","",""
"html-keyboard-response","310","268494","0.0-4.0-2.76","null","<p style='position: absolute; top: 40%;right: 20%'><img src='img/s1s.jpeg' width='200px'/></p> <p style='position: absolute; top: 40%;left: 20%'><img src='img/s2.jpeg' width='200px'/></p> <p style='position: absolute; top: 40%;right: 45%'><img src='img/punishment.jpeg' width='200px'/></p>","null","","","","","",""
"html-keyboard-response","311","269843","0.0-4.0-3.76","null","<p style=""font-size: 48px"">+</p>","null","","","","","",""
"html-button-response","312","270607","0.0-4.0-0.77","762.6099999979488","","","","1","1","2","0","0"
"html-keyboard-response","313","271109","0.0-4.0-1.77","null","<p style='position: absolute; top: 40%;left: 20%'><img src='img/s1.jpeg' width='200px'/></p> <p style='position: absolute; top: 40%;right: 20%'><img src='img/s2s.jpeg' width='200px'/></p>","null","","","","","",""
"html-keyboard-response","314","272113","0.0-4.0-2.77","null","<p style='position: absolute; top: 40%;left: 20%'><img src='img/s1.jpeg' width='200px'/></p> <p style='position: absolute; top: 40%;right: 20%'><img src='img/s2s.jpeg' width='200px'/></p> <p style='position: absolute; top: 40%;right: 45%'><img src='img/punishment.jpeg' width='200px'/></p>","null","","","","","",""
"html-keyboard-response","315","273524","0.0-4.0-3.77","null","<p style=""font-size: 48px"">+</p>","null","","","","","",""
"html-button-response","316","274561","0.0-4.0-0.78","1036.3799999977346","","","","0","1","2","0","1"
"html-keyboard-response","317","275067","0.0-4.0-1.78","null","<p style='position: absolute; top: 40%;left: 20%'><img src='img/s1s.jpeg' width='200px'/></p> <p style='position: absolute; top: 40%;right: 20%'><img src='img/s2.jpeg' width='200px'/></p>","null","","","","","",""
"html-keyboard-response","318","276071","0.0-4.0-2.78","null","<p style='position: absolute; top: 40%;left: 20%'><img src='img/s1s.jpeg' width='200px'/></p> <p style='position: absolute; top: 40%;right: 20%'><img src='img/s2.jpeg' width='200px'/></p> <p style='position: absolute; top: 40%;right: 45%'><img src='img/punishment.jpeg' width='200px'/></p>","null","","","","","",""
"html-keyboard-response","319","276930","0.0-4.0-3.78","null","<p style=""font-size: 48px"">+</p>","null","","","","","",""
"html-button-response","320","278357","0.0-4.0-0.79","1426.049999994575","","","","1","1","2","1","1"
"html-keyboard-response","321","278860","0.0-4.0-1.79","null","<p style='position: absolute; top: 40%;left: 20%'><img src='img/s1.jpeg' width='200px'/></p> <p style='position: absolute; top: 40%;right: 20%'><img src='img/s2s.jpeg' width='200px'/></p>","null","","","","","",""
"html-keyboard-response","322","279862","0.0-4.0-2.79","null","<p style='position: absolute; top: 40%;left: 20%'><img src='img/s1.jpeg' width='200px'/></p> <p style='position: absolute; top: 40%;right: 20%'><img src='img/s2s.jpeg' width='200px'/></p> <p style='position: absolute; top: 40%;right: 45%'><img src='img/reward.jpeg' width='200px'/></p>","null","","","","","",""
"html-keyboard-response","323","281249","0.0-4.0-3.79","null","<p style=""font-size: 48px"">+</p>","null","","","","","",""
