"trial_type","trial_index","time_elapsed","internal_node_id","rt","stimulus","key_press","success","button_pressed","left_right_s1","left_right_s2","reward_s1","reward_s2"
"pavlovia","0","4","0.0-0.0","","","","","","","","",""
"html-keyboard-response","1","8609","0.0-1.0","8603.924999995797","<p><span style='font-size:20pt;'>実験にお越しいただき，ありがとうございます!!!</span></p><p>キーボードのキーをどれか押して，開始してください</p>","32","","","","","",""
"fullscreen","2","11075","0.0-2.0","","","","true","","","","",""
"html-keyboard-response","3","14456","0.0-3.0","3380.2950000026613","<p style='text-align:left'>画面に２つの図形がでてきますので，どちらかの図形を選択してください。</p><p style='text-align'>あなたの選択に対して，ポジティブな反応（緑色の笑顔）かネガティブな反応（赤色の悲しい顔）が出ます。</p><p style='text-align:left'>一方の図形はポジティブな反応が出やすく，もう一方はそうではありません。</p><p style='text-align:left'>できるだけ，ポジティブな反応が得られるように，選択をしてください。</p><p style='text-align:left'>図形の選択はマウスを使って行ってください</p><p style='text-align:left'>なお，図形とそれに対する反応との関係は途中で変わることがあります。</p><p style='text-align:left'>また，図形の出る位置（左右）は頻繁に変わります。</p><p style='text-align:left'>準備ができましたら，キーボードのキーを押して始めてください。</p>","32","","","","","",""
"html-button-response","4","16367","0.0-4.0-0.0","907.4099999997998","","","","0","1","2","1","1"
"html-keyboard-response","5","16868","0.0-4.0-1.0","null","<p style='position: absolute; top: 40%;left: 20%'><img src='img/s1s.jpeg' width='200px'/></p> <p style='position: absolute; top: 40%;right: 20%'><img src='img/s2.jpeg' width='200px'/></p>","null","","","","","",""
"html-keyboard-response","6","17872","0.0-4.0-2.0","null","<p style='position: absolute; top: 40%;left: 20%'><img src='img/s1s.jpeg' width='200px'/></p> <p style='position: absolute; top: 40%;right: 20%'><img src='img/s2.jpeg' width='200px'/></p> <p style='position: absolute; top: 40%;right: 45%'><img src='img/reward.jpeg' width='200px'/></p>","null","","","","","",""
"html-keyboard-response","7","19265","0.0-4.0-3.0","null","<p style=""font-size: 48px"">+</p>","null","","","","","",""
"html-button-response","8","19958","0.0-4.0-0.1","691.7649999959394","","","","0","1","2","1","0"
"html-keyboard-response","9","20460","0.0-4.0-1.1","null","<p style='position: absolute; top: 40%;left: 20%'><img src='img/s1s.jpeg' width='200px'/></p> <p style='position: absolute; top: 40%;right: 20%'><img src='img/s2.jpeg' width='200px'/></p>","null","","","","","",""
"html-keyboard-response","10","21465","0.0-4.0-2.1","null","<p style='position: absolute; top: 40%;left: 20%'><img src='img/s1s.jpeg' width='200px'/></p> <p style='position: absolute; top: 40%;right: 20%'><img src='img/s2.jpeg' width='200px'/></p> <p style='position: absolute; top: 40%;right: 45%'><img src='img/reward.jpeg' width='200px'/></p>","null","","","","","",""
"html-keyboard-response","11","22826","0.0-4.0-3.1","null","<p style=""font-size: 48px"">+</p>","null","","","","","",""
"html-button-response","12","23883","0.0-4.0-0.2","1055.0750000038533","","","","0","2","1","1","1"
"html-keyboard-response","13","24384","0.0-4.0-1.2","null","<p style='position: absolute; top: 40%;right: 20%'><img src='img/s1s.jpeg' width='200px'/></p> <p style='position: absolute; top: 40%;left: 20%'><img src='img/s2.jpeg' width='200px'/></p>","null","","","","","",""
"html-keyboard-response","14","25389","0.0-4.0-2.2","null","<p style='position: absolute; top: 40%;right: 20%'><img src='img/s1s.jpeg' width='200px'/></p> <p style='position: absolute; top: 40%;left: 20%'><img src='img/s2.jpeg' width='200px'/></p> <p style='position: absolute; top: 40%;right: 45%'><img src='img/reward.jpeg' width='200px'/></p>","null","","","","","",""
"html-keyboard-response","15","26149","0.0-4.0-3.2","null","<p style=""font-size: 48px"">+</p>","null","","","","","",""
"html-button-response","16","26964","0.0-4.0-0.3","814.3049999998766","","","","0","2","1","1","0"
"html-keyboard-response","17","27468","0.0-4.0-1.3","null","<p style='position: absolute; top: 40%;right: 20%'><img src='img/s1s.jpeg' width='200px'/></p> <p style='position: absolute; top: 40%;left: 20%'><img src='img/s2.jpeg' width='200px'/></p>","null","","","","","",""
"html-keyboard-response","18","28474","0.0-4.0-2.3","null","<p style='position: absolute; top: 40%;right: 20%'><img src='img/s1s.jpeg' width='200px'/></p> <p style='position: absolute; top: 40%;left: 20%'><img src='img/s2.jpeg' width='200px'/></p> <p style='position: absolute; top: 40%;right: 45%'><img src='img/reward.jpeg' width='200px'/></p>","null","","","","","",""
"html-keyboard-response","19","29784","0.0-4.0-3.3","null","<p style=""font-size: 48px"">+</p>","null","","","","","",""
"html-button-response","20","30610","0.0-4.0-0.4","824.9749999959022","","","","0","1","2","1","0"
"html-keyboard-response","21","31116","0.0-4.0-1.4","null","<p style='position: absolute; top: 40%;left: 20%'><img src='img/s1s.jpeg' width='200px'/></p> <p style='position: absolute; top: 40%;right: 20%'><img src='img/s2.jpeg' width='200px'/></p>","null","","","","","",""
"html-keyboard-response","22","32118","0.0-4.0-2.4","null","<p style='position: absolute; top: 40%;left: 20%'><img src='img/s1s.jpeg' width='200px'/></p> <p style='position: absolute; top: 40%;right: 20%'><img src='img/s2.jpeg' width='200px'/></p> <p style='position: absolute; top: 40%;right: 45%'><img src='img/reward.jpeg' width='200px'/></p>","null","","","","","",""
"html-keyboard-response","23","32995","0.0-4.0-3.4","null","<p style=""font-size: 48px"">+</p>","null","","","","","",""
"html-button-response","24","33662","0.0-4.0-0.5","666.3199999966309","","","","0","2","1","1","0"
"html-keyboard-response","25","34163","0.0-4.0-1.5","null","<p style='position: absolute; top: 40%;right: 20%'><img src='img/s1s.jpeg' width='200px'/></p> <p style='position: absolute; top: 40%;left: 20%'><img src='img/s2.jpeg' width='200px'/></p>","null","","","","","",""
"html-keyboard-response","26","35168","0.0-4.0-2.5","null","<p style='position: absolute; top: 40%;right: 20%'><img src='img/s1s.jpeg' width='200px'/></p> <p style='position: absolute; top: 40%;left: 20%'><img src='img/s2.jpeg' width='200px'/></p> <p style='position: absolute; top: 40%;right: 45%'><img src='img/reward.jpeg' width='200px'/></p>","null","","","","","",""
"html-keyboard-response","27","36623","0.0-4.0-3.5","null","<p style=""font-size: 48px"">+</p>","null","","","","","",""
"html-button-response","28","37674","0.0-4.0-0.6","1050.1000000003842","","","","0","1","2","1","0"
"html-keyboard-response","29","38176","0.0-4.0-1.6","null","<p style='position: absolute; top: 40%;left: 20%'><img src='img/s1s.jpeg' width='200px'/></p> <p style='position: absolute; top: 40%;right: 20%'><img src='img/s2.jpeg' width='200px'/></p>","null","","","","","",""
"html-keyboard-response","30","39182","0.0-4.0-2.6","null","<p style='position: absolute; top: 40%;left: 20%'><img src='img/s1s.jpeg' width='200px'/></p> <p style='position: absolute; top: 40%;right: 20%'><img src='img/s2.jpeg' width='200px'/></p> <p style='position: absolute; top: 40%;right: 45%'><img src='img/reward.jpeg' width='200px'/></p>","null","","","","","",""
"html-keyboard-response","31","39913","0.0-4.0-3.6","null","<p style=""font-size: 48px"">+</p>","null","","","","","",""
"html-button-response","32","40859","0.0-4.0-0.7","944.3700000047102","","","","0","2","1","1","0"
"html-keyboard-response","33","41361","0.0-4.0-1.7","null","<p style='position: absolute; top: 40%;right: 20%'><img src='img/s1s.jpeg' width='200px'/></p> <p style='position: absolute; top: 40%;left: 20%'><img src='img/s2.jpeg' width='200px'/></p>","null","","","","","",""
"html-keyboard-response","34","42363","0.0-4.0-2.7","null","<p style='position: absolute; top: 40%;right: 20%'><img src='img/s1s.jpeg' width='200px'/></p> <p style='position: absolute; top: 40%;left: 20%'><img src='img/s2.jpeg' width='200px'/></p> <p style='position: absolute; top: 40%;right: 45%'><img src='img/reward.jpeg' width='200px'/></p>","null","","","","","",""
"html-keyboard-response","35","42934","0.0-4.0-3.7","null","<p style=""font-size: 48px"">+</p>","null","","","","","",""
"html-button-response","36","43940","0.0-4.0-0.8","1005.0799999953597","","","","0","1","2","0","0"
"html-keyboard-response","37","44443","0.0-4.0-1.8","null","<p style='position: absolute; top: 40%;left: 20%'><img src='img/s1s.jpeg' width='200px'/></p> <p style='position: absolute; top: 40%;right: 20%'><img src='img/s2.jpeg' width='200px'/></p>","null","","","","","",""
"html-keyboard-response","38","45446","0.0-4.0-2.8","null","<p style='position: absolute; top: 40%;left: 20%'><img src='img/s1s.jpeg' width='200px'/></p> <p style='position: absolute; top: 40%;right: 20%'><img src='img/s2.jpeg' width='200px'/></p> <p style='position: absolute; top: 40%;right: 45%'><img src='img/punishment.jpeg' width='200px'/></p>","null","","","","","",""
"html-keyboard-response","39","46156","0.0-4.0-3.8","null","<p style=""font-size: 48px"">+</p>","null","","","","","",""
"html-button-response","40","47056","0.0-4.0-0.9","899.5450000002165","","","","0","2","1","0","0"
"html-keyboard-response","41","47562","0.0-4.0-1.9","null","<p style='position: absolute; top: 40%;right: 20%'><img src='img/s1s.jpeg' width='200px'/></p> <p style='position: absolute; top: 40%;left: 20%'><img src='img/s2.jpeg' width='200px'/></p>","null","","","","","",""
"html-keyboard-response","42","48563","0.0-4.0-2.9","null","<p style='position: absolute; top: 40%;right: 20%'><img src='img/s1s.jpeg' width='200px'/></p> <p style='position: absolute; top: 40%;left: 20%'><img src='img/s2.jpeg' width='200px'/></p> <p style='position: absolute; top: 40%;right: 45%'><img src='img/punishment.jpeg' width='200px'/></p>","null","","","","","",""
"html-keyboard-response","43","49997","0.0-4.0-3.9","null","<p style=""font-size: 48px"">+</p>","null","","","","","",""
"html-button-response","44","51034","0.0-4.0-0.10","1036.130000000412","","","","0","1","2","1","0"
"html-keyboard-response","45","51539","0.0-4.0-1.10","null","<p style='position: absolute; top: 40%;left: 20%'><img src='img/s1s.jpeg' width='200px'/></p> <p style='position: absolute; top: 40%;right: 20%'><img src='img/s2.jpeg' width='200px'/></p>","null","","","","","",""
"html-keyboard-response","46","52544","0.0-4.0-2.10","null","<p style='position: absolute; top: 40%;left: 20%'><img src='img/s1s.jpeg' width='200px'/></p> <p style='position: absolute; top: 40%;right: 20%'><img src='img/s2.jpeg' width='200px'/></p> <p style='position: absolute; top: 40%;right: 45%'><img src='img/reward.jpeg' width='200px'/></p>","null","","","","","",""
"html-keyboard-response","47","53615","0.0-4.0-3.10","null","<p style=""font-size: 48px"">+</p>","null","","","","","",""
"html-button-response","48","54742","0.0-4.0-0.11","1126.8600000039442","","","","0","1","2","1","1"
"html-keyboard-response","49","55243","0.0-4.0-1.11","null","<p style='position: absolute; top: 40%;left: 20%'><img src='img/s1s.jpeg' width='200px'/></p> <p style='position: absolute; top: 40%;right: 20%'><img src='img/s2.jpeg' width='200px'/></p>","null","","","","","",""
"html-keyboard-response","50","56248","0.0-4.0-2.11","null","<p style='position: absolute; top: 40%;left: 20%'><img src='img/s1s.jpeg' width='200px'/></p> <p style='position: absolute; top: 40%;right: 20%'><img src='img/s2.jpeg' width='200px'/></p> <p style='position: absolute; top: 40%;right: 45%'><img src='img/reward.jpeg' width='200px'/></p>","null","","","","","",""
"html-keyboard-response","51","56959","0.0-4.0-3.11","null","<p style=""font-size: 48px"">+</p>","null","","","","","",""
"html-button-response","52","57878","0.0-4.0-0.12","917.7599999966333","","","","0","1","2","1","0"
"html-keyboard-response","53","58384","0.0-4.0-1.12","null","<p style='position: absolute; top: 40%;left: 20%'><img src='img/s1s.jpeg' width='200px'/></p> <p style='position: absolute; top: 40%;right: 20%'><img src='img/s2.jpeg' width='200px'/></p>","null","","","","","",""
"html-keyboard-response","54","59388","0.0-4.0-2.12","null","<p style='position: absolute; top: 40%;left: 20%'><img src='img/s1s.jpeg' width='200px'/></p> <p style='position: absolute; top: 40%;right: 20%'><img src='img/s2.jpeg' width='200px'/></p> <p style='position: absolute; top: 40%;right: 45%'><img src='img/reward.jpeg' width='200px'/></p>","null","","","","","",""
"html-keyboard-response","55","60281","0.0-4.0-3.12","null","<p style=""font-size: 48px"">+</p>","null","","","","","",""
"html-button-response","56","61244","0.0-4.0-0.13","963.1349999981467","","","","0","2","1","1","0"
"html-keyboard-response","57","61750","0.0-4.0-1.13","null","<p style='position: absolute; top: 40%;right: 20%'><img src='img/s1s.jpeg' width='200px'/></p> <p style='position: absolute; top: 40%;left: 20%'><img src='img/s2.jpeg' width='200px'/></p>","null","","","","","",""
"html-keyboard-response","58","62754","0.0-4.0-2.13","null","<p style='position: absolute; top: 40%;right: 20%'><img src='img/s1s.jpeg' width='200px'/></p> <p style='position: absolute; top: 40%;left: 20%'><img src='img/s2.jpeg' width='200px'/></p> <p style='position: absolute; top: 40%;right: 45%'><img src='img/reward.jpeg' width='200px'/></p>","null","","","","","",""
"html-keyboard-response","59","63546","0.0-4.0-3.13","null","<p style=""font-size: 48px"">+</p>","null","","","","","",""
"html-button-response","60","64402","0.0-4.0-0.14","856.0199999992619","","","","0","2","1","1","1"
"html-keyboard-response","61","64907","0.0-4.0-1.14","null","<p style='position: absolute; top: 40%;right: 20%'><img src='img/s1s.jpeg' width='200px'/></p> <p style='position: absolute; top: 40%;left: 20%'><img src='img/s2.jpeg' width='200px'/></p>","null","","","","","",""
"html-keyboard-response","62","65912","0.0-4.0-2.14","null","<p style='position: absolute; top: 40%;right: 20%'><img src='img/s1s.jpeg' width='200px'/></p> <p style='position: absolute; top: 40%;left: 20%'><img src='img/s2.jpeg' width='200px'/></p> <p style='position: absolute; top: 40%;right: 45%'><img src='img/reward.jpeg' width='200px'/></p>","null","","","","","",""
"html-keyboard-response","63","67218","0.0-4.0-3.14","null","<p style=""font-size: 48px"">+</p>","null","","","","","",""
"html-button-response","64","68115","0.0-4.0-0.15","895.7599999994272","","","","0","2","1","0","0"
"html-keyboard-response","65","68616","0.0-4.0-1.15","null","<p style='position: absolute; top: 40%;right: 20%'><img src='img/s1s.jpeg' width='200px'/></p> <p style='position: absolute; top: 40%;left: 20%'><img src='img/s2.jpeg' width='200px'/></p>","null","","","","","",""
"html-keyboard-response","66","69617","0.0-4.0-2.15","null","<p style='position: absolute; top: 40%;right: 20%'><img src='img/s1s.jpeg' width='200px'/></p> <p style='position: absolute; top: 40%;left: 20%'><img src='img/s2.jpeg' width='200px'/></p> <p style='position: absolute; top: 40%;right: 45%'><img src='img/punishment.jpeg' width='200px'/></p>","null","","","","","",""
"html-keyboard-response","67","70992","0.0-4.0-3.15","null","<p style=""font-size: 48px"">+</p>","null","","","","","",""
"html-button-response","68","71834","0.0-4.0-0.16","840.9950000059325","","","","0","1","2","1","0"
"html-keyboard-response","69","72336","0.0-4.0-1.16","null","<p style='position: absolute; top: 40%;left: 20%'><img src='img/s1s.jpeg' width='200px'/></p> <p style='position: absolute; top: 40%;right: 20%'><img src='img/s2.jpeg' width='200px'/></p>","null","","","","","",""
"html-keyboard-response","70","73339","0.0-4.0-2.16","null","<p style='position: absolute; top: 40%;left: 20%'><img src='img/s1s.jpeg' width='200px'/></p> <p style='position: absolute; top: 40%;right: 20%'><img src='img/s2.jpeg' width='200px'/></p> <p style='position: absolute; top: 40%;right: 45%'><img src='img/reward.jpeg' width='200px'/></p>","null","","","","","",""
"html-keyboard-response","71","74237","0.0-4.0-3.16","null","<p style=""font-size: 48px"">+</p>","null","","","","","",""
"html-button-response","72","75313","0.0-4.0-0.17","1074.4399999966845","","","","0","1","2","1","0"
"html-keyboard-response","73","75818","0.0-4.0-1.17","null","<p style='position: absolute; top: 40%;left: 20%'><img src='img/s1s.jpeg' width='200px'/></p> <p style='position: absolute; top: 40%;right: 20%'><img src='img/s2.jpeg' width='200px'/></p>","null","","","","","",""
"html-keyboard-response","74","76822","0.0-4.0-2.17","null","<p style='position: absolute; top: 40%;left: 20%'><img src='img/s1s.jpeg' width='200px'/></p> <p style='position: absolute; top: 40%;right: 20%'><img src='img/s2.jpeg' width='200px'/></p> <p style='position: absolute; top: 40%;right: 45%'><img src='img/reward.jpeg' width='200px'/></p>","null","","","","","",""
"html-keyboard-response","75","77959","0.0-4.0-3.17","null","<p style=""font-size: 48px"">+</p>","null","","","","","",""
"html-button-response","76","78702","0.0-4.0-0.18","741.8800000014016","","","","0","2","1","0","0"
"html-keyboard-response","77","79203","0.0-4.0-1.18","null","<p style='position: absolute; top: 40%;right: 20%'><img src='img/s1s.jpeg' width='200px'/></p> <p style='position: absolute; top: 40%;left: 20%'><img src='img/s2.jpeg' width='200px'/></p>","null","","","","","",""
"html-keyboard-response","78","80206","0.0-4.0-2.18","null","<p style='position: absolute; top: 40%;right: 20%'><img src='img/s1s.jpeg' width='200px'/></p> <p style='position: absolute; top: 40%;left: 20%'><img src='img/s2.jpeg' width='200px'/></p> <p style='position: absolute; top: 40%;right: 45%'><img src='img/punishment.jpeg' width='200px'/></p>","null","","","","","",""
"html-keyboard-response","79","80791","0.0-4.0-3.18","null","<p style=""font-size: 48px"">+</p>","null","","","","","",""
"html-button-response","80","81400","0.0-4.0-0.19","608.6649999997462","","","","0","2","1","1","0"
"html-keyboard-response","81","81902","0.0-4.0-1.19","null","<p style='position: absolute; top: 40%;right: 20%'><img src='img/s1s.jpeg' width='200px'/></p> <p style='position: absolute; top: 40%;left: 20%'><img src='img/s2.jpeg' width='200px'/></p>","null","","","","","",""
"html-keyboard-response","82","82903","0.0-4.0-2.19","null","<p style='position: absolute; top: 40%;right: 20%'><img src='img/s1s.jpeg' width='200px'/></p> <p style='position: absolute; top: 40%;left: 20%'><img src='img/s2.jpeg' width='200px'/></p> <p style='position: absolute; top: 40%;right: 45%'><img src='img/reward.jpeg' width='200px'/></p>","null","","","","","",""
"html-keyboard-response","83","84214","0.0-4.0-3.19","null","<p style=""font-size: 48px"">+</p>","null","","","","","",""
"html-button-response","84","85190","0.0-4.0-0.20","974.900000001071","","","","0","2","1","1","0"
"html-keyboard-response","85","85691","0.0-4.0-1.20","null","<p style='position: absolute; top: 40%;right: 20%'><img src='img/s1s.jpeg' width='200px'/></p> <p style='position: absolute; top: 40%;left: 20%'><img src='img/s2.jpeg' width='200px'/></p>","null","","","","","",""
"html-keyboard-response","86","86696","0.0-4.0-2.20","null","<p style='position: absolute; top: 40%;right: 20%'><img src='img/s1s.jpeg' width='200px'/></p> <p style='position: absolute; top: 40%;left: 20%'><img src='img/s2.jpeg' width='200px'/></p> <p style='position: absolute; top: 40%;right: 45%'><img src='img/reward.jpeg' width='200px'/></p>","null","","","","","",""
"html-keyboard-response","87","87466","0.0-4.0-3.20","null","<p style=""font-size: 48px"">+</p>","null","","","","","",""
"html-button-response","88","88672","0.0-4.0-0.21","1205.6749999974272","","","","0","1","2","0","0"
"html-keyboard-response","89","89177","0.0-4.0-1.21","null","<p style='position: absolute; top: 40%;left: 20%'><img src='img/s1s.jpeg' width='200px'/></p> <p style='position: absolute; top: 40%;right: 20%'><img src='img/s2.jpeg' width='200px'/></p>","null","","","","","",""
"html-keyboard-response","90","90179","0.0-4.0-2.21","null","<p style='position: absolute; top: 40%;left: 20%'><img src='img/s1s.jpeg' width='200px'/></p> <p style='position: absolute; top: 40%;right: 20%'><img src='img/s2.jpeg' width='200px'/></p> <p style='position: absolute; top: 40%;right: 45%'><img src='img/punishment.jpeg' width='200px'/></p>","null","","","","","",""
"html-keyboard-response","91","90844","0.0-4.0-3.21","null","<p style=""font-size: 48px"">+</p>","null","","","","","",""
"html-button-response","92","91914","0.0-4.0-0.22","1069.2249999992782","","","","0","2","1","1","0"
"html-keyboard-response","93","92418","0.0-4.0-1.22","null","<p style='position: absolute; top: 40%;right: 20%'><img src='img/s1s.jpeg' width='200px'/></p> <p style='position: absolute; top: 40%;left: 20%'><img src='img/s2.jpeg' width='200px'/></p>","null","","","","","",""
"html-keyboard-response","94","93419","0.0-4.0-2.22","null","<p style='position: absolute; top: 40%;right: 20%'><img src='img/s1s.jpeg' width='200px'/></p> <p style='position: absolute; top: 40%;left: 20%'><img src='img/s2.jpeg' width='200px'/></p> <p style='position: absolute; top: 40%;right: 45%'><img src='img/reward.jpeg' width='200px'/></p>","null","","","","","",""
"html-keyboard-response","95","94064","0.0-4.0-3.22","null","<p style=""font-size: 48px"">+</p>","null","","","","","",""
"html-button-response","96","95099","0.0-4.0-0.23","1034.1449999978067","","","","0","1","2","1","0"
"html-keyboard-response","97","95603","0.0-4.0-1.23","null","<p style='position: absolute; top: 40%;left: 20%'><img src='img/s1s.jpeg' width='200px'/></p> <p style='position: absolute; top: 40%;right: 20%'><img src='img/s2.jpeg' width='200px'/></p>","null","","","","","",""
"html-keyboard-response","98","96607","0.0-4.0-2.23","null","<p style='position: absolute; top: 40%;left: 20%'><img src='img/s1s.jpeg' width='200px'/></p> <p style='position: absolute; top: 40%;right: 20%'><img src='img/s2.jpeg' width='200px'/></p> <p style='position: absolute; top: 40%;right: 45%'><img src='img/reward.jpeg' width='200px'/></p>","null","","","","","",""
"html-keyboard-response","99","98034","0.0-4.0-3.23","null","<p style=""font-size: 48px"">+</p>","null","","","","","",""
"html-button-response","100","98654","0.0-4.0-0.24","618.9100000046892","","","","0","2","1","1","1"
"html-keyboard-response","101","99155","0.0-4.0-1.24","null","<p style='position: absolute; top: 40%;right: 20%'><img src='img/s1s.jpeg' width='200px'/></p> <p style='position: absolute; top: 40%;left: 20%'><img src='img/s2.jpeg' width='200px'/></p>","null","","","","","",""
"html-keyboard-response","102","100160","0.0-4.0-2.24","null","<p style='position: absolute; top: 40%;right: 20%'><img src='img/s1s.jpeg' width='200px'/></p> <p style='position: absolute; top: 40%;left: 20%'><img src='img/s2.jpeg' width='200px'/></p> <p style='position: absolute; top: 40%;right: 45%'><img src='img/reward.jpeg' width='200px'/></p>","null","","","","","",""
"html-keyboard-response","103","101158","0.0-4.0-3.24","null","<p style=""font-size: 48px"">+</p>","null","","","","","",""
"html-button-response","104","102065","0.0-4.0-0.25","905.800000000454","","","","0","2","1","1","0"
"html-keyboard-response","105","102568","0.0-4.0-1.25","null","<p style='position: absolute; top: 40%;right: 20%'><img src='img/s1s.jpeg' width='200px'/></p> <p style='position: absolute; top: 40%;left: 20%'><img src='img/s2.jpeg' width='200px'/></p>","null","","","","","",""
"html-keyboard-response","106","103573","0.0-4.0-2.25","null","<p style='position: absolute; top: 40%;right: 20%'><img src='img/s1s.jpeg' width='200px'/></p> <p style='position: absolute; top: 40%;left: 20%'><img src='img/s2.jpeg' width='200px'/></p> <p style='position: absolute; top: 40%;right: 45%'><img src='img/reward.jpeg' width='200px'/></p>","null","","","","","",""
"html-keyboard-response","107","104472","0.0-4.0-3.25","null","<p style=""font-size: 48px"">+</p>","null","","","","","",""
"html-button-response","108","105270","0.0-4.0-0.26","797.2650000010617","","","","0","1","2","1","0"
"html-keyboard-response","109","105771","0.0-4.0-1.26","null","<p style='position: absolute; top: 40%;left: 20%'><img src='img/s1s.jpeg' width='200px'/></p> <p style='position: absolute; top: 40%;right: 20%'><img src='img/s2.jpeg' width='200px'/></p>","null","","","","","",""
"html-keyboard-response","110","106777","0.0-4.0-2.26","null","<p style='position: absolute; top: 40%;left: 20%'><img src='img/s1s.jpeg' width='200px'/></p> <p style='position: absolute; top: 40%;right: 20%'><img src='img/s2.jpeg' width='200px'/></p> <p style='position: absolute; top: 40%;right: 45%'><img src='img/reward.jpeg' width='200px'/></p>","null","","","","","",""
"html-keyboard-response","111","107948","0.0-4.0-3.26","null","<p style=""font-size: 48px"">+</p>","null","","","","","",""
"html-button-response","112","108789","0.0-4.0-0.27","839.9949999948149","","","","0","2","1","0","1"
"html-keyboard-response","113","109292","0.0-4.0-1.27","null","<p style='position: absolute; top: 40%;right: 20%'><img src='img/s1s.jpeg' width='200px'/></p> <p style='position: absolute; top: 40%;left: 20%'><img src='img/s2.jpeg' width='200px'/></p>","null","","","","","",""
"html-keyboard-response","114","110294","0.0-4.0-2.27","null","<p style='position: absolute; top: 40%;right: 20%'><img src='img/s1s.jpeg' width='200px'/></p> <p style='position: absolute; top: 40%;left: 20%'><img src='img/s2.jpeg' width='200px'/></p> <p style='position: absolute; top: 40%;right: 45%'><img src='img/punishment.jpeg' width='200px'/></p>","null","","","","","",""
"html-keyboard-response","115","111155","0.0-4.0-3.27","null","<p style=""font-size: 48px"">+</p>","null","","","","","",""
"html-button-response","116","112841","0.0-4.0-0.28","1685.2499999949941","","","","0","1","2","1","0"
"html-keyboard-response","117","113346","0.0-4.0-1.28","null","<p style='position: absolute; top: 40%;left: 20%'><img src='img/s1s.jpeg' width='200px'/></p> <p style='position: absolute; top: 40%;right: 20%'><img src='img/s2.jpeg' width='200px'/></p>","null","","","","","",""
"html-keyboard-response","118","114350","0.0-4.0-2.28","null","<p style='position: absolute; top: 40%;left: 20%'><img src='img/s1s.jpeg' width='200px'/></p> <p style='position: absolute; top: 40%;right: 20%'><img src='img/s2.jpeg' width='200px'/></p> <p style='position: absolute; top: 40%;right: 45%'><img src='img/reward.jpeg' width='200px'/></p>","null","","","","","",""
"html-keyboard-response","119","115758","0.0-4.0-3.28","null","<p style=""font-size: 48px"">+</p>","null","","","","","",""
"html-button-response","120","116740","0.0-4.0-0.29","981.6050000008545","","","","0","1","2","1","0"
"html-keyboard-response","121","117243","0.0-4.0-1.29","null","<p style='position: absolute; top: 40%;left: 20%'><img src='img/s1s.jpeg' width='200px'/></p> <p style='position: absolute; top: 40%;right: 20%'><img src='img/s2.jpeg' width='200px'/></p>","null","","","","","",""
"html-keyboard-response","122","118247","0.0-4.0-2.29","null","<p style='position: absolute; top: 40%;left: 20%'><img src='img/s1s.jpeg' width='200px'/></p> <p style='position: absolute; top: 40%;right: 20%'><img src='img/s2.jpeg' width='200px'/></p> <p style='position: absolute; top: 40%;right: 45%'><img src='img/reward.jpeg' width='200px'/></p>","null","","","","","",""
"html-keyboard-response","123","118978","0.0-4.0-3.29","null","<p style=""font-size: 48px"">+</p>","null","","","","","",""
"html-button-response","124","119887","0.0-4.0-0.30","908.1249999944703","","","","0","2","1","1","0"
"html-keyboard-response","125","120387","0.0-4.0-1.30","null","<p style='position: absolute; top: 40%;right: 20%'><img src='img/s1s.jpeg' width='200px'/></p> <p style='position: absolute; top: 40%;left: 20%'><img src='img/s2.jpeg' width='200px'/></p>","null","","","","","",""
"html-keyboard-response","126","121391","0.0-4.0-2.30","null","<p style='position: absolute; top: 40%;right: 20%'><img src='img/s1s.jpeg' width='200px'/></p> <p style='position: absolute; top: 40%;left: 20%'><img src='img/s2.jpeg' width='200px'/></p> <p style='position: absolute; top: 40%;right: 45%'><img src='img/reward.jpeg' width='200px'/></p>","null","","","","","",""
"html-keyboard-response","127","122504","0.0-4.0-3.30","null","<p style=""font-size: 48px"">+</p>","null","","","","","",""
"html-button-response","128","123421","0.0-4.0-0.31","915.6699999948614","","","","0","2","1","1","0"
"html-keyboard-response","129","123926","0.0-4.0-1.31","null","<p style='position: absolute; top: 40%;right: 20%'><img src='img/s1s.jpeg' width='200px'/></p> <p style='position: absolute; top: 40%;left: 20%'><img src='img/s2.jpeg' width='200px'/></p>","null","","","","","",""
"html-keyboard-response","130","124930","0.0-4.0-2.31","null","<p style='position: absolute; top: 40%;right: 20%'><img src='img/s1s.jpeg' width='200px'/></p> <p style='position: absolute; top: 40%;left: 20%'><img src='img/s2.jpeg' width='200px'/></p> <p style='position: absolute; top: 40%;right: 45%'><img src='img/reward.jpeg' width='200px'/></p>","null","","","","","",""
"html-keyboard-response","131","125869","0.0-4.0-3.31","null","<p style=""font-size: 48px"">+</p>","null","","","","","",""
"html-button-response","132","126917","0.0-4.0-0.32","1046.8449999971199","","","","0","1","2","0","0"
"html-keyboard-response","133","127418","0.0-4.0-1.32","null","<p style='position: absolute; top: 40%;left: 20%'><img src='img/s1s.jpeg' width='200px'/></p> <p style='position: absolute; top: 40%;right: 20%'><img src='img/s2.jpeg' width='200px'/></p>","null","","","","","",""
"html-keyboard-response","134","128422","0.0-4.0-2.32","null","<p style='position: absolute; top: 40%;left: 20%'><img src='img/s1s.jpeg' width='200px'/></p> <p style='position: absolute; top: 40%;right: 20%'><img src='img/s2.jpeg' width='200px'/></p> <p style='position: absolute; top: 40%;right: 45%'><img src='img/punishment.jpeg' width='200px'/></p>","null","","","","","",""
"html-keyboard-response","135","129543","0.0-4.0-3.32","null","<p style=""font-size: 48px"">+</p>","null","","","","","",""
"html-button-response","136","130291","0.0-4.0-0.33","747.0600000015111","","","","0","2","1","1","0"
"html-keyboard-response","137","130792","0.0-4.0-1.33","null","<p style='position: absolute; top: 40%;right: 20%'><img src='img/s1s.jpeg' width='200px'/></p> <p style='position: absolute; top: 40%;left: 20%'><img src='img/s2.jpeg' width='200px'/></p>","null","","","","","",""
"html-keyboard-response","138","131793","0.0-4.0-2.33","null","<p style='position: absolute; top: 40%;right: 20%'><img src='img/s1s.jpeg' width='200px'/></p> <p style='position: absolute; top: 40%;left: 20%'><img src='img/s2.jpeg' width='200px'/></p> <p style='position: absolute; top: 40%;right: 45%'><img src='img/reward.jpeg' width='200px'/></p>","null","","","","","",""
"html-keyboard-response","139","132550","0.0-4.0-3.33","null","<p style=""font-size: 48px"">+</p>","null","","","","","",""
"html-button-response","140","133486","0.0-4.0-0.34","935.444999995525","","","","0","1","2","1","1"
"html-keyboard-response","141","133989","0.0-4.0-1.34","null","<p style='position: absolute; top: 40%;left: 20%'><img src='img/s1s.jpeg' width='200px'/></p> <p style='position: absolute; top: 40%;right: 20%'><img src='img/s2.jpeg' width='200px'/></p>","null","","","","","",""
"html-keyboard-response","142","134990","0.0-4.0-2.34","null","<p style='position: absolute; top: 40%;left: 20%'><img src='img/s1s.jpeg' width='200px'/></p> <p style='position: absolute; top: 40%;right: 20%'><img src='img/s2.jpeg' width='200px'/></p> <p style='position: absolute; top: 40%;right: 45%'><img src='img/reward.jpeg' width='200px'/></p>","null","","","","","",""
"html-keyboard-response","143","135596","0.0-4.0-3.34","null","<p style=""font-size: 48px"">+</p>","null","","","","","",""
"html-button-response","144","136526","0.0-4.0-0.35","929.4000000008964","","","","0","2","1","1","0"
"html-keyboard-response","145","137027","0.0-4.0-1.35","null","<p style='position: absolute; top: 40%;right: 20%'><img src='img/s1s.jpeg' width='200px'/></p> <p style='position: absolute; top: 40%;left: 20%'><img src='img/s2.jpeg' width='200px'/></p>","null","","","","","",""
"html-keyboard-response","146","138029","0.0-4.0-2.35","null","<p style='position: absolute; top: 40%;right: 20%'><img src='img/s1s.jpeg' width='200px'/></p> <p style='position: absolute; top: 40%;left: 20%'><img src='img/s2.jpeg' width='200px'/></p> <p style='position: absolute; top: 40%;right: 45%'><img src='img/reward.jpeg' width='200px'/></p>","null","","","","","",""
"html-keyboard-response","147","138880","0.0-4.0-3.35","null","<p style=""font-size: 48px"">+</p>","null","","","","","",""
"html-button-response","148","139745","0.0-4.0-0.36","863.5949999952572","","","","0","2","1","0","1"
"html-keyboard-response","149","140246","0.0-4.0-1.36","null","<p style='position: absolute; top: 40%;right: 20%'><img src='img/s1s.jpeg' width='200px'/></p> <p style='position: absolute; top: 40%;left: 20%'><img src='img/s2.jpeg' width='200px'/></p>","null","","","","","",""
"html-keyboard-response","150","141250","0.0-4.0-2.36","null","<p style='position: absolute; top: 40%;right: 20%'><img src='img/s1s.jpeg' width='200px'/></p> <p style='position: absolute; top: 40%;left: 20%'><img src='img/s2.jpeg' width='200px'/></p> <p style='position: absolute; top: 40%;right: 45%'><img src='img/punishment.jpeg' width='200px'/></p>","null","","","","","",""
"html-keyboard-response","151","141798","0.0-4.0-3.36","null","<p style=""font-size: 48px"">+</p>","null","","","","","",""
"html-button-response","152","142805","0.0-4.0-0.37","1005.4650000020047","","","","0","1","2","1","0"
"html-keyboard-response","153","143311","0.0-4.0-1.37","null","<p style='position: absolute; top: 40%;left: 20%'><img src='img/s1s.jpeg' width='200px'/></p> <p style='position: absolute; top: 40%;right: 20%'><img src='img/s2.jpeg' width='200px'/></p>","null","","","","","",""
"html-keyboard-response","154","144314","0.0-4.0-2.37","null","<p style='position: absolute; top: 40%;left: 20%'><img src='img/s1s.jpeg' width='200px'/></p> <p style='position: absolute; top: 40%;right: 20%'><img src='img/s2.jpeg' width='200px'/></p> <p style='position: absolute; top: 40%;right: 45%'><img src='img/reward.jpeg' width='200px'/></p>","null","","","","","",""
"html-keyboard-response","155","145607","0.0-4.0-3.37","null","<p style=""font-size: 48px"">+</p>","null","","","","","",""
"html-button-response","156","146589","0.0-4.0-0.38","981.3349999967613","","","","0","1","2","1","0"
"html-keyboard-response","157","147090","0.0-4.0-1.38","null","<p style='position: absolute; top: 40%;left: 20%'><img src='img/s1s.jpeg' width='200px'/></p> <p style='position: absolute; top: 40%;right: 20%'><img src='img/s2.jpeg' width='200px'/></p>","null","","","","","",""
"html-keyboard-response","158","148094","0.0-4.0-2.38","null","<p style='position: absolute; top: 40%;left: 20%'><img src='img/s1s.jpeg' width='200px'/></p> <p style='position: absolute; top: 40%;right: 20%'><img src='img/s2.jpeg' width='200px'/></p> <p style='position: absolute; top: 40%;right: 45%'><img src='img/reward.jpeg' width='200px'/></p>","null","","","","","",""
"html-keyboard-response","159","149491","0.0-4.0-3.38","null","<p style=""font-size: 48px"">+</p>","null","","","","","",""
"html-button-response","160","150656","0.0-4.0-0.39","1164.1149999995832","","","","0","1","2","1","0"
"html-keyboard-response","161","151158","0.0-4.0-1.39","null","<p style='position: absolute; top: 40%;left: 20%'><img src='img/s1s.jpeg' width='200px'/></p> <p style='position: absolute; top: 40%;right: 20%'><img src='img/s2.jpeg' width='200px'/></p>","null","","","","","",""
"html-keyboard-response","162","152163","0.0-4.0-2.39","null","<p style='position: absolute; top: 40%;left: 20%'><img src='img/s1s.jpeg' width='200px'/></p> <p style='position: absolute; top: 40%;right: 20%'><img src='img/s2.jpeg' width='200px'/></p> <p style='position: absolute; top: 40%;right: 45%'><img src='img/reward.jpeg' width='200px'/></p>","null","","","","","",""
"html-keyboard-response","163","153493","0.0-4.0-3.39","null","<p style=""font-size: 48px"">+</p>","null","","","","","",""
"html-button-response","164","154361","0.0-4.0-0.40","866.504999998142","","","","0","2","1","1","1"
"html-keyboard-response","165","154863","0.0-4.0-1.40","null","<p style='position: absolute; top: 40%;right: 20%'><img src='img/s1s.jpeg' width='200px'/></p> <p style='position: absolute; top: 40%;left: 20%'><img src='img/s2.jpeg' width='200px'/></p>","null","","","","","",""
"html-keyboard-response","166","155867","0.0-4.0-2.40","null","<p style='position: absolute; top: 40%;right: 20%'><img src='img/s1s.jpeg' width='200px'/></p> <p style='position: absolute; top: 40%;left: 20%'><img src='img/s2.jpeg' width='200px'/></p> <p style='position: absolute; top: 40%;right: 45%'><img src='img/reward.jpeg' width='200px'/></p>","null","","","","","",""
"html-keyboard-response","167","156618","0.0-4.0-3.40","null","<p style=""font-size: 48px"">+</p>","null","","","","","",""
"html-button-response","168","157477","0.0-4.0-0.41","857.2449999992386","","","","0","1","2","0","1"
"html-keyboard-response","169","157978","0.0-4.0-1.41","null","<p style='position: absolute; top: 40%;left: 20%'><img src='img/s1s.jpeg' width='200px'/></p> <p style='position: absolute; top: 40%;right: 20%'><img src='img/s2.jpeg' width='200px'/></p>","null","","","","","",""
"html-keyboard-response","170","158982","0.0-4.0-2.41","null","<p style='position: absolute; top: 40%;left: 20%'><img src='img/s1s.jpeg' width='200px'/></p> <p style='position: absolute; top: 40%;right: 20%'><img src='img/s2.jpeg' width='200px'/></p> <p style='position: absolute; top: 40%;right: 45%'><img src='img/punishment.jpeg' width='200px'/></p>","null","","","","","",""
"html-keyboard-response","171","159657","0.0-4.0-3.41","null","<p style=""font-size: 48px"">+</p>","null","","","","","",""
"html-button-response","172","160658","0.0-4.0-0.42","1000.2850000018952","","","","0","1","2","0","1"
"html-keyboard-response","173","161162","0.0-4.0-1.42","null","<p style='position: absolute; top: 40%;left: 20%'><img src='img/s1s.jpeg' width='200px'/></p> <p style='position: absolute; top: 40%;right: 20%'><img src='img/s2.jpeg' width='200px'/></p>","null","","","","","",""
"html-keyboard-response","174","162166","0.0-4.0-2.42","null","<p style='position: absolute; top: 40%;left: 20%'><img src='img/s1s.jpeg' width='200px'/></p> <p style='position: absolute; top: 40%;right: 20%'><img src='img/s2.jpeg' width='200px'/></p> <p style='position: absolute; top: 40%;right: 45%'><img src='img/punishment.jpeg' width='200px'/></p>","null","","","","","",""
"html-keyboard-response","175","163179","0.0-4.0-3.42","null","<p style=""font-size: 48px"">+</p>","null","","","","","",""
"html-button-response","176","163990","0.0-4.0-0.43","809.9500000025728","","","","0","1","2","0","1"
"html-keyboard-response","177","164491","0.0-4.0-1.43","null","<p style='position: absolute; top: 40%;left: 20%'><img src='img/s1s.jpeg' width='200px'/></p> <p style='position: absolute; top: 40%;right: 20%'><img src='img/s2.jpeg' width='200px'/></p>","null","","","","","",""
"html-keyboard-response","178","165497","0.0-4.0-2.43","null","<p style='position: absolute; top: 40%;left: 20%'><img src='img/s1s.jpeg' width='200px'/></p> <p style='position: absolute; top: 40%;right: 20%'><img src='img/s2.jpeg' width='200px'/></p> <p style='position: absolute; top: 40%;right: 45%'><img src='img/punishment.jpeg' width='200px'/></p>","null","","","","","",""
"html-keyboard-response","179","166693","0.0-4.0-3.43","null","<p style=""font-size: 48px"">+</p>","null","","","","","",""
"html-button-response","180","167697","0.0-4.0-0.44","1002.2450000033132","","","","1","2","1","0","0"
"html-keyboard-response","181","168197","0.0-4.0-1.44","null","<p style='position: absolute; top: 40%;right: 20%'><img src='img/s1.jpeg' width='200px'/></p> <p style='position: absolute; top: 40%;left: 20%'><img src='img/s2s.jpeg' width='200px'/></p>","null","","","","","",""
"html-keyboard-response","182","169202","0.0-4.0-2.44","null","<p style='position: absolute; top: 40%;right: 20%'><img src='img/s1.jpeg' width='200px'/></p> <p style='position: absolute; top: 40%;left: 20%'><img src='img/s2s.jpeg' width='200px'/></p> <p style='position: absolute; top: 40%;right: 45%'><img src='img/reward.jpeg' width='200px'/></p>","null","","","","","",""
"html-keyboard-response","183","170474","0.0-4.0-3.44","null","<p style=""font-size: 48px"">+</p>","null","","","","","",""
"html-button-response","184","171465","0.0-4.0-0.45","989.2550000004121","","","","1","2","1","0","1"
"html-keyboard-response","185","171969","0.0-4.0-1.45","null","<p style='position: absolute; top: 40%;right: 20%'><img src='img/s1.jpeg' width='200px'/></p> <p style='position: absolute; top: 40%;left: 20%'><img src='img/s2s.jpeg' width='200px'/></p>","null","","","","","",""
"html-keyboard-response","186","172971","0.0-4.0-2.45","null","<p style='position: absolute; top: 40%;right: 20%'><img src='img/s1.jpeg' width='200px'/></p> <p style='position: absolute; top: 40%;left: 20%'><img src='img/s2s.jpeg' width='200px'/></p> <p style='position: absolute; top: 40%;right: 45%'><img src='img/punishment.jpeg' width='200px'/></p>","null","","","","","",""
"html-keyboard-response","187","174347","0.0-4.0-3.45","null","<p style=""font-size: 48px"">+</p>","null","","","","","",""
"html-button-response","188","175193","0.0-4.0-0.46","844.8000000062166","","","","1","2","1","1","0"
"html-keyboard-response","189","175695","0.0-4.0-1.46","null","<p style='position: absolute; top: 40%;right: 20%'><img src='img/s1.jpeg' width='200px'/></p> <p style='position: absolute; top: 40%;left: 20%'><img src='img/s2s.jpeg' width='200px'/></p>","null","","","","","",""
"html-keyboard-response","190","176698","0.0-4.0-2.46","null","<p style='position: absolute; top: 40%;right: 20%'><img src='img/s1.jpeg' width='200px'/></p> <p style='position: absolute; top: 40%;left: 20%'><img src='img/s2s.jpeg' width='200px'/></p> <p style='position: absolute; top: 40%;right: 45%'><img src='img/reward.jpeg' width='200px'/></p>","null","","","","","",""
"html-keyboard-response","191","177595","0.0-4.0-3.46","null","<p style=""font-size: 48px"">+</p>","null","","","","","",""
"html-button-response","192","178624","0.0-4.0-0.47","1029.0600000007544","","","","1","1","2","0","1"
"html-keyboard-response","193","179126","0.0-4.0-1.47","null","<p style='position: absolute; top: 40%;left: 20%'><img src='img/s1.jpeg' width='200px'/></p> <p style='position: absolute; top: 40%;right: 20%'><img src='img/s2s.jpeg' width='200px'/></p>","null","","","","","",""
"html-keyboard-response","194","180127","0.0-4.0-2.47","null","<p style='position: absolute; top: 40%;left: 20%'><img src='img/s1.jpeg' width='200px'/></p> <p style='position: absolute; top: 40%;right: 20%'><img src='img/s2s.jpeg' width='200px'/></p> <p style='position: absolute; top: 40%;right: 45%'><img src='img/reward.jpeg' width='200px'/></p>","null","","","","","",""
"html-keyboard-response","195","180891","0.0-4.0-3.47","null","<p style=""font-size: 48px"">+</p>","null","","","","","",""
"html-button-response","196","181789","0.0-4.0-0.48","896.7400000037742","","","","1","2","1","0","1"
"html-keyboard-response","197","182293","0.0-4.0-1.48","null","<p style='position: absolute; top: 40%;right: 20%'><img src='img/s1.jpeg' width='200px'/></p> <p style='position: absolute; top: 40%;left: 20%'><img src='img/s2s.jpeg' width='200px'/></p>","null","","","","","",""
"html-keyboard-response","198","183294","0.0-4.0-2.48","null","<p style='position: absolute; top: 40%;right: 20%'><img src='img/s1.jpeg' width='200px'/></p> <p style='position: absolute; top: 40%;left: 20%'><img src='img/s2s.jpeg' width='200px'/></p> <p style='position: absolute; top: 40%;right: 45%'><img src='img/punishment.jpeg' width='200px'/></p>","null","","","","","",""
"html-keyboard-response","199","184658","0.0-4.0-3.48","null","<p style=""font-size: 48px"">+</p>","null","","","","","",""
"html-button-response","200","185505","0.0-4.0-0.49","845.2050000050804","","","","1","1","2","0","1"
"html-keyboard-response","201","186007","0.0-4.0-1.49","null","<p style='position: absolute; top: 40%;left: 20%'><img src='img/s1.jpeg' width='200px'/></p> <p style='position: absolute; top: 40%;right: 20%'><img src='img/s2s.jpeg' width='200px'/></p>","null","","","","","",""
"html-keyboard-response","202","187011","0.0-4.0-2.49","null","<p style='position: absolute; top: 40%;left: 20%'><img src='img/s1.jpeg' width='200px'/></p> <p style='position: absolute; top: 40%;right: 20%'><img src='img/s2s.jpeg' width='200px'/></p> <p style='position: absolute; top: 40%;right: 45%'><img src='img/reward.jpeg' width='200px'/></p>","null","","","","","",""
"html-keyboard-response","203","187901","0.0-4.0-3.49","null","<p style=""font-size: 48px"">+</p>","null","","","","","",""
"html-button-response","204","188645","0.0-4.0-0.50","742.7049999969313","","","","1","2","1","0","0"
"html-keyboard-response","205","189150","0.0-4.0-1.50","null","<p style='position: absolute; top: 40%;right: 20%'><img src='img/s1.jpeg' width='200px'/></p> <p style='position: absolute; top: 40%;left: 20%'><img src='img/s2s.jpeg' width='200px'/></p>","null","","","","","",""
"html-keyboard-response","206","190151","0.0-4.0-2.50","null","<p style='position: absolute; top: 40%;right: 20%'><img src='img/s1.jpeg' width='200px'/></p> <p style='position: absolute; top: 40%;left: 20%'><img src='img/s2s.jpeg' width='200px'/></p> <p style='position: absolute; top: 40%;right: 45%'><img src='img/reward.jpeg' width='200px'/></p>","null","","","","","",""
"html-keyboard-response","207","190763","0.0-4.0-3.50","null","<p style=""font-size: 48px"">+</p>","null","","","","","",""
"html-button-response","208","191819","0.0-4.0-0.51","1054.615000000922","","","","1","1","2","1","1"
"html-keyboard-response","209","192322","0.0-4.0-1.51","null","<p style='position: absolute; top: 40%;left: 20%'><img src='img/s1.jpeg' width='200px'/></p> <p style='position: absolute; top: 40%;right: 20%'><img src='img/s2s.jpeg' width='200px'/></p>","null","","","","","",""
"html-keyboard-response","210","193327","0.0-4.0-2.51","null","<p style='position: absolute; top: 40%;left: 20%'><img src='img/s1.jpeg' width='200px'/></p> <p style='position: absolute; top: 40%;right: 20%'><img src='img/s2s.jpeg' width='200px'/></p> <p style='position: absolute; top: 40%;right: 45%'><img src='img/reward.jpeg' width='200px'/></p>","null","","","","","",""
"html-keyboard-response","211","194412","0.0-4.0-3.51","null","<p style=""font-size: 48px"">+</p>","null","","","","","",""
"html-button-response","212","195587","0.0-4.0-0.52","1174.0950000021257","","","","1","1","2","0","1"
"html-keyboard-response","213","196093","0.0-4.0-1.52","null","<p style='position: absolute; top: 40%;left: 20%'><img src='img/s1.jpeg' width='200px'/></p> <p style='position: absolute; top: 40%;right: 20%'><img src='img/s2s.jpeg' width='200px'/></p>","null","","","","","",""
"html-keyboard-response","214","197098","0.0-4.0-2.52","null","<p style='position: absolute; top: 40%;left: 20%'><img src='img/s1.jpeg' width='200px'/></p> <p style='position: absolute; top: 40%;right: 20%'><img src='img/s2s.jpeg' width='200px'/></p> <p style='position: absolute; top: 40%;right: 45%'><img src='img/reward.jpeg' width='200px'/></p>","null","","","","","",""
"html-keyboard-response","215","197690","0.0-4.0-3.52","null","<p style=""font-size: 48px"">+</p>","null","","","","","",""
"html-button-response","216","198634","0.0-4.0-0.53","943.4299999993527","","","","1","1","2","1","1"
"html-keyboard-response","217","199135","0.0-4.0-1.53","null","<p style='position: absolute; top: 40%;left: 20%'><img src='img/s1.jpeg' width='200px'/></p> <p style='position: absolute; top: 40%;right: 20%'><img src='img/s2s.jpeg' width='200px'/></p>","null","","","","","",""
"html-keyboard-response","218","200140","0.0-4.0-2.53","null","<p style='position: absolute; top: 40%;left: 20%'><img src='img/s1.jpeg' width='200px'/></p> <p style='position: absolute; top: 40%;right: 20%'><img src='img/s2s.jpeg' width='200px'/></p> <p style='position: absolute; top: 40%;right: 45%'><img src='img/reward.jpeg' width='200px'/></p>","null","","","","","",""
"html-keyboard-response","219","201039","0.0-4.0-3.53","null","<p style=""font-size: 48px"">+</p>","null","","","","","",""
"html-button-response","220","202441","0.0-4.0-0.54","1400.920000000042","","","","1","2","1","0","1"
"html-keyboard-response","221","202942","0.0-4.0-1.54","null","<p style='position: absolute; top: 40%;right: 20%'><img src='img/s1.jpeg' width='200px'/></p> <p style='position: absolute; top: 40%;left: 20%'><img src='img/s2s.jpeg' width='200px'/></p>","null","","","","","",""
"html-keyboard-response","222","203946","0.0-4.0-2.54","null","<p style='position: absolute; top: 40%;right: 20%'><img src='img/s1.jpeg' width='200px'/></p> <p style='position: absolute; top: 40%;left: 20%'><img src='img/s2s.jpeg' width='200px'/></p> <p style='position: absolute; top: 40%;right: 45%'><img src='img/punishment.jpeg' width='200px'/></p>","null","","","","","",""
"html-keyboard-response","223","205084","0.0-4.0-3.54","null","<p style=""font-size: 48px"">+</p>","null","","","","","",""
"html-button-response","224","206065","0.0-4.0-0.55","980.0949999989825","","","","1","2","1","0","1"
"html-keyboard-response","225","206565","0.0-4.0-1.55","null","<p style='position: absolute; top: 40%;right: 20%'><img src='img/s1.jpeg' width='200px'/></p> <p style='position: absolute; top: 40%;left: 20%'><img src='img/s2s.jpeg' width='200px'/></p>","null","","","","","",""
"html-keyboard-response","226","207570","0.0-4.0-2.55","null","<p style='position: absolute; top: 40%;right: 20%'><img src='img/s1.jpeg' width='200px'/></p> <p style='position: absolute; top: 40%;left: 20%'><img src='img/s2s.jpeg' width='200px'/></p> <p style='position: absolute; top: 40%;right: 45%'><img src='img/punishment.jpeg' width='200px'/></p>","null","","","","","",""
"html-keyboard-response","227","208425","0.0-4.0-3.55","null","<p style=""font-size: 48px"">+</p>","null","","","","","",""
"html-button-response","228","209329","0.0-4.0-0.56","903.1150000009802","","","","1","2","1","0","1"
"html-keyboard-response","229","209830","0.0-4.0-1.56","null","<p style='position: absolute; top: 40%;right: 20%'><img src='img/s1.jpeg' width='200px'/></p> <p style='position: absolute; top: 40%;left: 20%'><img src='img/s2s.jpeg' width='200px'/></p>","null","","","","","",""
"html-keyboard-response","230","210834","0.0-4.0-2.56","null","<p style='position: absolute; top: 40%;right: 20%'><img src='img/s1.jpeg' width='200px'/></p> <p style='position: absolute; top: 40%;left: 20%'><img src='img/s2s.jpeg' width='200px'/></p> <p style='position: absolute; top: 40%;right: 45%'><img src='img/punishment.jpeg' width='200px'/></p>","null","","","","","",""
"html-keyboard-response","231","211717","0.0-4.0-3.56","null","<p style=""font-size: 48px"">+</p>","null","","","","","",""
"html-button-response","232","212583","0.0-4.0-0.57","864.3349999983911","","","","1","1","2","0","0"
"html-keyboard-response","233","213084","0.0-4.0-1.57","null","<p style='position: absolute; top: 40%;left: 20%'><img src='img/s1.jpeg' width='200px'/></p> <p style='position: absolute; top: 40%;right: 20%'><img src='img/s2s.jpeg' width='200px'/></p>","null","","","","","",""
"html-keyboard-response","234","214090","0.0-4.0-2.57","null","<p style='position: absolute; top: 40%;left: 20%'><img src='img/s1.jpeg' width='200px'/></p> <p style='position: absolute; top: 40%;right: 20%'><img src='img/s2s.jpeg' width='200px'/></p> <p style='position: absolute; top: 40%;right: 45%'><img src='img/punishment.jpeg' width='200px'/></p>","null","","","","","",""
"html-keyboard-response","235","214837","0.0-4.0-3.57","null","<p style=""font-size: 48px"">+</p>","null","","","","","",""
"html-button-response","236","215587","0.0-4.0-0.58","748.8099999973201","","","","1","1","2","0","1"
"html-keyboard-response","237","216091","0.0-4.0-1.58","null","<p style='position: absolute; top: 40%;left: 20%'><img src='img/s1.jpeg' width='200px'/></p> <p style='position: absolute; top: 40%;right: 20%'><img src='img/s2s.jpeg' width='200px'/></p>","null","","","","","",""
"html-keyboard-response","238","217092","0.0-4.0-2.58","null","<p style='position: absolute; top: 40%;left: 20%'><img src='img/s1.jpeg' width='200px'/></p> <p style='position: absolute; top: 40%;right: 20%'><img src='img/s2s.jpeg' width='200px'/></p> <p style='position: absolute; top: 40%;right: 45%'><img src='img/reward.jpeg' width='200px'/></p>","null","","","","","",""
"html-keyboard-response","239","218469","0.0-4.0-3.58","null","<p style=""font-size: 48px"">+</p>","null","","","","","",""
"html-button-response","240","219379","0.0-4.0-0.59","908.5399999967194","","","","1","2","1","0","1"
"html-keyboard-response","241","219881","0.0-4.0-1.59","null","<p style='position: absolute; top: 40%;right: 20%'><img src='img/s1.jpeg' width='200px'/></p> <p style='position: absolute; top: 40%;left: 20%'><img src='img/s2s.jpeg' width='200px'/></p>","null","","","","","",""
"html-keyboard-response","242","220884","0.0-4.0-2.59","null","<p style='position: absolute; top: 40%;right: 20%'><img src='img/s1.jpeg' width='200px'/></p> <p style='position: absolute; top: 40%;left: 20%'><img src='img/s2s.jpeg' width='200px'/></p> <p style='position: absolute; top: 40%;right: 45%'><img src='img/punishment.jpeg' width='200px'/></p>","null","","","","","",""
"html-keyboard-response","243","221432","0.0-4.0-3.59","null","<p style=""font-size: 48px"">+</p>","null","","","","","",""
"html-button-response","244","222431","0.0-4.0-0.60","998.3399999982794","","","","1","2","1","1","1"
"html-keyboard-response","245","222934","0.0-4.0-1.60","null","<p style='position: absolute; top: 40%;right: 20%'><img src='img/s1.jpeg' width='200px'/></p> <p style='position: absolute; top: 40%;left: 20%'><img src='img/s2s.jpeg' width='200px'/></p>","null","","","","","",""
"html-keyboard-response","246","223939","0.0-4.0-2.60","null","<p style='position: absolute; top: 40%;right: 20%'><img src='img/s1.jpeg' width='200px'/></p> <p style='position: absolute; top: 40%;left: 20%'><img src='img/s2s.jpeg' width='200px'/></p> <p style='position: absolute; top: 40%;right: 45%'><img src='img/punishment.jpeg' width='200px'/></p>","null","","","","","",""
"html-keyboard-response","247","225095","0.0-4.0-3.60","null","<p style=""font-size: 48px"">+</p>","null","","","","","",""
"html-button-response","248","225959","0.0-4.0-0.61","863.100000002305","","","","1","1","2","1","1"
"html-keyboard-response","249","226465","0.0-4.0-1.61","null","<p style='position: absolute; top: 40%;left: 20%'><img src='img/s1.jpeg' width='200px'/></p> <p style='position: absolute; top: 40%;right: 20%'><img src='img/s2s.jpeg' width='200px'/></p>","null","","","","","",""
"html-keyboard-response","250","227466","0.0-4.0-2.61","null","<p style='position: absolute; top: 40%;left: 20%'><img src='img/s1.jpeg' width='200px'/></p> <p style='position: absolute; top: 40%;right: 20%'><img src='img/s2s.jpeg' width='200px'/></p> <p style='position: absolute; top: 40%;right: 45%'><img src='img/reward.jpeg' width='200px'/></p>","null","","","","","",""
"html-keyboard-response","251","228944","0.0-4.0-3.61","null","<p style=""font-size: 48px"">+</p>","null","","","","","",""
"html-button-response","252","229857","0.0-4.0-0.62","911.9650000066031","","","","1","2","1","0","1"
"html-keyboard-response","253","230362","0.0-4.0-1.62","null","<p style='position: absolute; top: 40%;right: 20%'><img src='img/s1.jpeg' width='200px'/></p> <p style='position: absolute; top: 40%;left: 20%'><img src='img/s2s.jpeg' width='200px'/></p>","null","","","","","",""
"html-keyboard-response","254","231366","0.0-4.0-2.62","null","<p style='position: absolute; top: 40%;right: 20%'><img src='img/s1.jpeg' width='200px'/></p> <p style='position: absolute; top: 40%;left: 20%'><img src='img/s2s.jpeg' width='200px'/></p> <p style='position: absolute; top: 40%;right: 45%'><img src='img/punishment.jpeg' width='200px'/></p>","null","","","","","",""
"html-keyboard-response","255","232580","0.0-4.0-3.62","null","<p style=""font-size: 48px"">+</p>","null","","","","","",""
"html-button-response","256","233449","0.0-4.0-0.63","868.1150000047637","","","","1","1","2","0","1"
"html-keyboard-response","257","233954","0.0-4.0-1.63","null","<p style='position: absolute; top: 40%;left: 20%'><img src='img/s1.jpeg' width='200px'/></p> <p style='position: absolute; top: 40%;right: 20%'><img src='img/s2s.jpeg' width='200px'/></p>","null","","","","","",""
"html-keyboard-response","258","234958","0.0-4.0-2.63","null","<p style='position: absolute; top: 40%;left: 20%'><img src='img/s1.jpeg' width='200px'/></p> <p style='position: absolute; top: 40%;right: 20%'><img src='img/s2s.jpeg' width='200px'/></p> <p style='position: absolute; top: 40%;right: 45%'><img src='img/reward.jpeg' width='200px'/></p>","null","","","","","",""
"html-keyboard-response","259","235584","0.0-4.0-3.63","null","<p style=""font-size: 48px"">+</p>","null","","","","","",""
"html-button-response","260","236426","0.0-4.0-0.64","841.695000002801","","","","1","1","2","0","0"
"html-keyboard-response","261","236930","0.0-4.0-1.64","null","<p style='position: absolute; top: 40%;left: 20%'><img src='img/s1.jpeg' width='200px'/></p> <p style='position: absolute; top: 40%;right: 20%'><img src='img/s2s.jpeg' width='200px'/></p>","null","","","","","",""
"html-keyboard-response","262","237934","0.0-4.0-2.64","null","<p style='position: absolute; top: 40%;left: 20%'><img src='img/s1.jpeg' width='200px'/></p> <p style='position: absolute; top: 40%;right: 20%'><img src='img/s2s.jpeg' width='200px'/></p> <p style='position: absolute; top: 40%;right: 45%'><img src='img/punishment.jpeg' width='200px'/></p>","null","","","","","",""
"html-keyboard-response","263","238734","0.0-4.0-3.64","null","<p style=""font-size: 48px"">+</p>","null","","","","","",""
"html-button-response","264","239569","0.0-4.0-0.65","833.8050000020303","","","","1","1","2","0","1"
"html-keyboard-response","265","240070","0.0-4.0-1.65","null","<p style='position: absolute; top: 40%;left: 20%'><img src='img/s1.jpeg' width='200px'/></p> <p style='position: absolute; top: 40%;right: 20%'><img src='img/s2s.jpeg' width='200px'/></p>","null","","","","","",""
"html-keyboard-response","266","241074","0.0-4.0-2.65","null","<p style='position: absolute; top: 40%;left: 20%'><img src='img/s1.jpeg' width='200px'/></p> <p style='position: absolute; top: 40%;right: 20%'><img src='img/s2s.jpeg' width='200px'/></p> <p style='position: absolute; top: 40%;right: 45%'><img src='img/reward.jpeg' width='200px'/></p>","null","","","","","",""
"html-keyboard-response","267","242078","0.0-4.0-3.65","null","<p style=""font-size: 48px"">+</p>","null","","","","","",""
"html-button-response","268","243361","0.0-4.0-0.66","1281.8649999971967","","","","1","2","1","0","1"
"html-keyboard-response","269","243866","0.0-4.0-1.66","null","<p style='position: absolute; top: 40%;right: 20%'><img src='img/s1.jpeg' width='200px'/></p> <p style='position: absolute; top: 40%;left: 20%'><img src='img/s2s.jpeg' width='200px'/></p>","null","","","","","",""
"html-keyboard-response","270","244868","0.0-4.0-2.66","null","<p style='position: absolute; top: 40%;right: 20%'><img src='img/s1.jpeg' width='200px'/></p> <p style='position: absolute; top: 40%;left: 20%'><img src='img/s2s.jpeg' width='200px'/></p> <p style='position: absolute; top: 40%;right: 45%'><img src='img/punishment.jpeg' width='200px'/></p>","null","","","","","",""
"html-keyboard-response","271","245542","0.0-4.0-3.66","null","<p style=""font-size: 48px"">+</p>","null","","","","","",""
"html-button-response","272","246541","0.0-4.0-0.67","997.6299999980256","","","","1","2","1","0","1"
"html-keyboard-response","273","247046","0.0-4.0-1.67","null","<p style='position: absolute; top: 40%;right: 20%'><img src='img/s1.jpeg' width='200px'/></p> <p style='position: absolute; top: 40%;left: 20%'><img src='img/s2s.jpeg' width='200px'/></p>","null","","","","","",""
"html-keyboard-response","274","248052","0.0-4.0-2.67","null","<p style='position: absolute; top: 40%;right: 20%'><img src='img/s1.jpeg' width='200px'/></p> <p style='position: absolute; top: 40%;left: 20%'><img src='img/s2s.jpeg' width='200px'/></p> <p style='position: absolute; top: 40%;right: 45%'><img src='img/punishment.jpeg' width='200px'/></p>","null","","","","","",""
"html-keyboard-response","275","248770","0.0-4.0-3.67","null","<p style=""font-size: 48px"">+</p>","null","","","","","",""
"html-button-response","276","249699","0.0-4.0-0.68","927.9049999968265","","","","1","2","1","0","1"
"html-keyboard-response","277","250200","0.0-4.0-1.68","null","<p style='position: absolute; top: 40%;right: 20%'><img src='img/s1.jpeg' width='200px'/></p> <p style='position: absolute; top: 40%;left: 20%'><img src='img/s2s.jpeg' width='200px'/></p>","null","","","","","",""
"html-keyboard-response","278","251202","0.0-4.0-2.68","null","<p style='position: absolute; top: 40%;right: 20%'><img src='img/s1.jpeg' width='200px'/></p> <p style='position: absolute; top: 40%;left: 20%'><img src='img/s2s.jpeg' width='200px'/></p> <p style='position: absolute; top: 40%;right: 45%'><img src='img/punishment.jpeg' width='200px'/></p>","null","","","","","",""
"html-keyboard-response","279","252238","0.0-4.0-3.68","null","<p style=""font-size: 48px"">+</p>","null","","","","","",""
"html-button-response","280","253853","0.0-4.0-0.69","1613.3950000003097","","","","1","1","2","0","0"
"html-keyboard-response","281","254355","0.0-4.0-1.69","null","<p style='position: absolute; top: 40%;left: 20%'><img src='img/s1.jpeg' width='200px'/></p> <p style='position: absolute; top: 40%;right: 20%'><img src='img/s2s.jpeg' width='200px'/></p>","null","","","","","",""
"html-keyboard-response","282","255359","0.0-4.0-2.69","null","<p style='position: absolute; top: 40%;left: 20%'><img src='img/s1.jpeg' width='200px'/></p> <p style='position: absolute; top: 40%;right: 20%'><img src='img/s2s.jpeg' width='200px'/></p> <p style='position: absolute; top: 40%;right: 45%'><img src='img/punishment.jpeg' width='200px'/></p>","null","","","","","",""
"html-keyboard-response","283","256691","0.0-4.0-3.69","null","<p style=""font-size: 48px"">+</p>","null","","","","","",""
"html-button-response","284","257524","0.0-4.0-0.70","831.9849999970756","","","","1","1","2","0","1"
"html-keyboard-response","285","258028","0.0-4.0-1.70","null","<p style='position: absolute; top: 40%;left: 20%'><img src='img/s1.jpeg' width='200px'/></p> <p style='position: absolute; top: 40%;right: 20%'><img src='img/s2s.jpeg' width='200px'/></p>","null","","","","","",""
"html-keyboard-response","286","259033","0.0-4.0-2.70","null","<p style='position: absolute; top: 40%;left: 20%'><img src='img/s1.jpeg' width='200px'/></p> <p style='position: absolute; top: 40%;right: 20%'><img src='img/s2s.jpeg' width='200px'/></p> <p style='position: absolute; top: 40%;right: 45%'><img src='img/reward.jpeg' width='200px'/></p>","null","","","","","",""
"html-keyboard-response","287","260198","0.0-4.0-3.70","null","<p style=""font-size: 48px"">+</p>","null","","","","","",""
"html-button-response","288","261053","0.0-4.0-0.71","854.4800000017858","","","","1","1","2","0","1"
"html-keyboard-response","289","261556","0.0-4.0-1.71","null","<p style='position: absolute; top: 40%;left: 20%'><img src='img/s1.jpeg' width='200px'/></p> <p style='position: absolute; top: 40%;right: 20%'><img src='img/s2s.jpeg' width='200px'/></p>","null","","","","","",""
"html-keyboard-response","290","262559","0.0-4.0-2.71","null","<p style='position: absolute; top: 40%;left: 20%'><img src='img/s1.jpeg' width='200px'/></p> <p style='position: absolute; top: 40%;right: 20%'><img src='img/s2s.jpeg' width='200px'/></p> <p style='position: absolute; top: 40%;right: 45%'><img src='img/reward.jpeg' width='200px'/></p>","null","","","","","",""
"html-keyboard-response","291","263091","0.0-4.0-3.71","null","<p style=""font-size: 48px"">+</p>","null","","","","","",""
"html-button-response","292","264141","0.0-4.0-0.72","1048.9500000039698","","","","1","2","1","0","1"
"html-keyboard-response","293","264642","0.0-4.0-1.72","null","<p style='position: absolute; top: 40%;right: 20%'><img src='img/s1.jpeg' width='200px'/></p> <p style='position: absolute; top: 40%;left: 20%'><img src='img/s2s.jpeg' width='200px'/></p>","null","","","","","",""
"html-keyboard-response","294","265647","0.0-4.0-2.72","null","<p style='position: absolute; top: 40%;right: 20%'><img src='img/s1.jpeg' width='200px'/></p> <p style='position: absolute; top: 40%;left: 20%'><img src='img/s2s.jpeg' width='200px'/></p> <p style='position: absolute; top: 40%;right: 45%'><img src='img/punishment.jpeg' width='200px'/></p>","null","","","","","",""
"html-keyboard-response","295","267084","0.0-4.0-3.72","null","<p style=""font-size: 48px"">+</p>","null","","","","","",""
"html-button-response","296","268091","0.0-4.0-0.73","1006.1649999988731","","","","1","2","1","0","1"
"html-keyboard-response","297","268594","0.0-4.0-1.73","null","<p style='position: absolute; top: 40%;right: 20%'><img src='img/s1.jpeg' width='200px'/></p> <p style='position: absolute; top: 40%;left: 20%'><img src='img/s2s.jpeg' width='200px'/></p>","null","","","","","",""
"html-keyboard-response","298","269597","0.0-4.0-2.73","null","<p style='position: absolute; top: 40%;right: 20%'><img src='img/s1.jpeg' width='200px'/></p> <p style='position: absolute; top: 40%;left: 20%'><img src='img/s2s.jpeg' width='200px'/></p> <p style='position: absolute; top: 40%;right: 45%'><img src='img/punishment.jpeg' width='200px'/></p>","null","","","","","",""
"html-keyboard-response","299","271092","0.0-4.0-3.73","null","<p style=""font-size: 48px"">+</p>","null","","","","","",""
"html-button-response","300","272041","0.0-4.0-0.74","948.2150000039837","","","","1","2","1","0","0"
"html-keyboard-response","301","272545","0.0-4.0-1.74","null","<p style='position: absolute; top: 40%;right: 20%'><img src='img/s1.jpeg' width='200px'/></p> <p style='position: absolute; top: 40%;left: 20%'><img src='img/s2s.jpeg' width='200px'/></p>","null","","","","","",""
"html-keyboard-response","302","273550","0.0-4.0-2.74","null","<p style='position: absolute; top: 40%;right: 20%'><img src='img/s1.jpeg' width='200px'/></p> <p style='position: absolute; top: 40%;left: 20%'><img src='img/s2s.jpeg' width='200px'/></p> <p style='position: absolute; top: 40%;right: 45%'><img src='img/reward.jpeg' width='200px'/></p>","null","","","","","",""
"html-keyboard-response","303","274658","0.0-4.0-3.74","null","<p style=""font-size: 48px"">+</p>","null","","","","","",""
"html-button-response","304","275497","0.0-4.0-0.75","838.145000001532","","","","1","2","1","1","1"
"html-keyboard-response","305","276000","0.0-4.0-1.75","null","<p style='position: absolute; top: 40%;right: 20%'><img src='img/s1.jpeg' width='200px'/></p> <p style='position: absolute; top: 40%;left: 20%'><img src='img/s2s.jpeg' width='200px'/></p>","null","","","","","",""
"html-keyboard-response","306","277001","0.0-4.0-2.75","null","<p style='position: absolute; top: 40%;right: 20%'><img src='img/s1.jpeg' width='200px'/></p> <p style='position: absolute; top: 40%;left: 20%'><img src='img/s2s.jpeg' width='200px'/></p> <p style='position: absolute; top: 40%;right: 45%'><img src='img/punishment.jpeg' width='200px'/></p>","null","","","","","",""
"html-keyboard-response","307","278135","0.0-4.0-3.75","null","<p style=""font-size: 48px"">+</p>","null","","","","","",""
"html-button-response","308","278995","0.0-4.0-0.76","859.1400000004796","","","","1","2","1","0","1"
"html-keyboard-response","309","279498","0.0-4.0-1.76","null","<p style='position: absolute; top: 40%;right: 20%'><img src='img/s1.jpeg' width='200px'/></p> <p style='position: absolute; top: 40%;left: 20%'><img src='img/s2s.jpeg' width='200px'/></p>","null","","","","","",""
"html-keyboard-response","310","280499","0.0-4.0-2.76","null","<p style='position: absolute; top: 40%;right: 20%'><img src='img/s1.jpeg' width='200px'/></p> <p style='position: absolute; top: 40%;left: 20%'><img src='img/s2s.jpeg' width='200px'/></p> <p style='position: absolute; top: 40%;right: 45%'><img src='img/punishment.jpeg' width='200px'/></p>","null","","","","","",""
"html-keyboard-response","311","281100","0.0-4.0-3.76","null","<p style=""font-size: 48px"">+</p>","null","","","","","",""
"html-button-response","312","282071","0.0-4.0-0.77","970.7950000010896","","","","1","1","2","0","0"
"html-keyboard-response","313","282577","0.0-4.0-1.77","null","<p style='position: absolute; top: 40%;left: 20%'><img src='img/s1.jpeg' width='200px'/></p> <p style='position: absolute; top: 40%;right: 20%'><img src='img/s2s.jpeg' width='200px'/></p>","null","","","","","",""
"html-keyboard-response","314","283581","0.0-4.0-2.77","null","<p style='position: absolute; top: 40%;left: 20%'><img src='img/s1.jpeg' width='200px'/></p> <p style='position: absolute; top: 40%;right: 20%'><img src='img/s2s.jpeg' width='200px'/></p> <p style='position: absolute; top: 40%;right: 45%'><img src='img/punishment.jpeg' width='200px'/></p>","null","","","","","",""
"html-keyboard-response","315","284633","0.0-4.0-3.77","null","<p style=""font-size: 48px"">+</p>","null","","","","","",""
"html-button-response","316","285485","0.0-4.0-0.78","850.8399999991525","","","","1","1","2","0","1"
"html-keyboard-response","317","285986","0.0-4.0-1.78","null","<p style='position: absolute; top: 40%;left: 20%'><img src='img/s1.jpeg' width='200px'/></p> <p style='position: absolute; top: 40%;right: 20%'><img src='img/s2s.jpeg' width='200px'/></p>","null","","","","","",""
"html-keyboard-response","318","286987","0.0-4.0-2.78","null","<p style='position: absolute; top: 40%;left: 20%'><img src='img/s1.jpeg' width='200px'/></p> <p style='position: absolute; top: 40%;right: 20%'><img src='img/s2s.jpeg' width='200px'/></p> <p style='position: absolute; top: 40%;right: 45%'><img src='img/reward.jpeg' width='200px'/></p>","null","","","","","",""
"html-keyboard-response","319","288154","0.0-4.0-3.78","null","<p style=""font-size: 48px"">+</p>","null","","","","","",""
"html-button-response","320","289021","0.0-4.0-0.79","865.3300000005402","","","","1","1","2","1","1"
"html-keyboard-response","321","289527","0.0-4.0-1.79","null","<p style='position: absolute; top: 40%;left: 20%'><img src='img/s1.jpeg' width='200px'/></p> <p style='position: absolute; top: 40%;right: 20%'><img src='img/s2s.jpeg' width='200px'/></p>","null","","","","","",""
"html-keyboard-response","322","290530","0.0-4.0-2.79","null","<p style='position: absolute; top: 40%;left: 20%'><img src='img/s1.jpeg' width='200px'/></p> <p style='position: absolute; top: 40%;right: 20%'><img src='img/s2s.jpeg' width='200px'/></p> <p style='position: absolute; top: 40%;right: 45%'><img src='img/reward.jpeg' width='200px'/></p>","null","","","","","",""
"html-keyboard-response","323","291131","0.0-4.0-3.79","null","<p style=""font-size: 48px"">+</p>","null","","","","","",""
