"trial_type","trial_index","time_elapsed","internal_node_id","rt","stimulus","key_press","success","button_pressed","left_right_s1","left_right_s2","reward_s1","reward_s2"
"pavlovia","0","3","0.0-0.0","","","","","","","","",""
"html-keyboard-response","1","39995","0.0-1.0","39992.90999999357","<p><span style='font-size:20pt;'>実験にお越しいただき，ありがとうございます!!!</span></p><p>キーボードのキーをどれか押して，開始してください</p>","32","","","","","",""
"fullscreen","2","44140","0.0-2.0","","","","true","","","","",""
"html-keyboard-response","3","48023","0.0-3.0","3882.514999997511","<p style='text-align:left'>画面に２つの図形がでてきますので，どちらかの図形を選択してください。</p><p style='text-align'>あなたの選択に対して，ポジティブな反応（緑色の笑顔）かネガティブな反応（赤色の悲しい顔）が出ます。</p><p style='text-align:left'>一方の図形はポジティブな反応が出やすく，もう一方はそうではありません。</p><p style='text-align:left'>できるだけ，ポジティブな反応が得られるように，選択をしてください。</p><p style='text-align:left'>図形の選択はマウスを使って行ってください</p><p style='text-align:left'>なお，図形とそれに対する反応との関係は途中で変わることがあります。</p><p style='text-align:left'>また，図形の出る位置（左右）は頻繁に変わります。</p><p style='text-align:left'>準備ができましたら，キーボードのキーを押して始めてください。</p>","32","","","","","",""
"html-button-response","4","49837","0.0-4.0-0.0","812.3649999979534","","","","0","1","2","1","0"
"html-keyboard-response","5","50340","0.0-4.0-1.0","null","<p style='position: absolute; top: 40%;left: 20%'><img src='img/s1s.jpeg' width='200px'/></p> <p style='position: absolute; top: 40%;right: 20%'><img src='img/s2.jpeg' width='200px'/></p>","null","","","","","",""
"html-keyboard-response","6","51345","0.0-4.0-2.0","null","<p style='position: absolute; top: 40%;left: 20%'><img src='img/s1s.jpeg' width='200px'/></p> <p style='position: absolute; top: 40%;right: 20%'><img src='img/s2.jpeg' width='200px'/></p> <p style='position: absolute; top: 40%;right: 45%'><img src='img/reward.jpeg' width='200px'/></p>","null","","","","","",""
"html-keyboard-response","7","52069","0.0-4.0-3.0","null","<p style=""font-size: 48px"">+</p>","null","","","","","",""
"html-button-response","8","52833","0.0-4.0-0.1","762.6200000013341","","","","0","1","2","1","1"
"html-keyboard-response","9","53335","0.0-4.0-1.1","null","<p style='position: absolute; top: 40%;left: 20%'><img src='img/s1s.jpeg' width='200px'/></p> <p style='position: absolute; top: 40%;right: 20%'><img src='img/s2.jpeg' width='200px'/></p>","null","","","","","",""
"html-keyboard-response","10","54339","0.0-4.0-2.1","null","<p style='position: absolute; top: 40%;left: 20%'><img src='img/s1s.jpeg' width='200px'/></p> <p style='position: absolute; top: 40%;right: 20%'><img src='img/s2.jpeg' width='200px'/></p> <p style='position: absolute; top: 40%;right: 45%'><img src='img/reward.jpeg' width='200px'/></p>","null","","","","","",""
"html-keyboard-response","11","55362","0.0-4.0-3.1","null","<p style=""font-size: 48px"">+</p>","null","","","","","",""
"html-button-response","12","55853","0.0-4.0-0.2","489.58000000129687","","","","0","1","2","1","1"
"html-keyboard-response","13","56358","0.0-4.0-1.2","null","<p style='position: absolute; top: 40%;left: 20%'><img src='img/s1s.jpeg' width='200px'/></p> <p style='position: absolute; top: 40%;right: 20%'><img src='img/s2.jpeg' width='200px'/></p>","null","","","","","",""
"html-keyboard-response","14","57364","0.0-4.0-2.2","null","<p style='position: absolute; top: 40%;left: 20%'><img src='img/s1s.jpeg' width='200px'/></p> <p style='position: absolute; top: 40%;right: 20%'><img src='img/s2.jpeg' width='200px'/></p> <p style='position: absolute; top: 40%;right: 45%'><img src='img/reward.jpeg' width='200px'/></p>","null","","","","","",""
"html-keyboard-response","15","57955","0.0-4.0-3.2","null","<p style=""font-size: 48px"">+</p>","null","","","","","",""
"html-button-response","16","59331","0.0-4.0-0.3","1375.0050000016927","","","","0","2","1","1","0"
"html-keyboard-response","17","59832","0.0-4.0-1.3","null","<p style='position: absolute; top: 40%;right: 20%'><img src='img/s1s.jpeg' width='200px'/></p> <p style='position: absolute; top: 40%;left: 20%'><img src='img/s2.jpeg' width='200px'/></p>","null","","","","","",""
"html-keyboard-response","18","60835","0.0-4.0-2.3","null","<p style='position: absolute; top: 40%;right: 20%'><img src='img/s1s.jpeg' width='200px'/></p> <p style='position: absolute; top: 40%;left: 20%'><img src='img/s2.jpeg' width='200px'/></p> <p style='position: absolute; top: 40%;right: 45%'><img src='img/reward.jpeg' width='200px'/></p>","null","","","","","",""
"html-keyboard-response","19","62019","0.0-4.0-3.3","null","<p style=""font-size: 48px"">+</p>","null","","","","","",""
"html-button-response","20","63031","0.0-4.0-0.4","1011.4749999993364","","","","0","1","2","1","0"
"html-keyboard-response","21","63533","0.0-4.0-1.4","null","<p style='position: absolute; top: 40%;left: 20%'><img src='img/s1s.jpeg' width='200px'/></p> <p style='position: absolute; top: 40%;right: 20%'><img src='img/s2.jpeg' width='200px'/></p>","null","","","","","",""
"html-keyboard-response","22","64536","0.0-4.0-2.4","null","<p style='position: absolute; top: 40%;left: 20%'><img src='img/s1s.jpeg' width='200px'/></p> <p style='position: absolute; top: 40%;right: 20%'><img src='img/s2.jpeg' width='200px'/></p> <p style='position: absolute; top: 40%;right: 45%'><img src='img/reward.jpeg' width='200px'/></p>","null","","","","","",""
"html-keyboard-response","23","65629","0.0-4.0-3.4","null","<p style=""font-size: 48px"">+</p>","null","","","","","",""
"html-button-response","24","66559","0.0-4.0-0.5","928.5450000024866","","","","0","2","1","1","0"
"html-keyboard-response","25","67062","0.0-4.0-1.5","null","<p style='position: absolute; top: 40%;right: 20%'><img src='img/s1s.jpeg' width='200px'/></p> <p style='position: absolute; top: 40%;left: 20%'><img src='img/s2.jpeg' width='200px'/></p>","null","","","","","",""
"html-keyboard-response","26","68066","0.0-4.0-2.5","null","<p style='position: absolute; top: 40%;right: 20%'><img src='img/s1s.jpeg' width='200px'/></p> <p style='position: absolute; top: 40%;left: 20%'><img src='img/s2.jpeg' width='200px'/></p> <p style='position: absolute; top: 40%;right: 45%'><img src='img/reward.jpeg' width='200px'/></p>","null","","","","","",""
"html-keyboard-response","27","69367","0.0-4.0-3.5","null","<p style=""font-size: 48px"">+</p>","null","","","","","",""
"html-button-response","28","70521","0.0-4.0-0.6","1152.509999999893","","","","0","2","1","1","0"
"html-keyboard-response","29","71022","0.0-4.0-1.6","null","<p style='position: absolute; top: 40%;right: 20%'><img src='img/s1s.jpeg' width='200px'/></p> <p style='position: absolute; top: 40%;left: 20%'><img src='img/s2.jpeg' width='200px'/></p>","null","","","","","",""
"html-keyboard-response","30","72024","0.0-4.0-2.6","null","<p style='position: absolute; top: 40%;right: 20%'><img src='img/s1s.jpeg' width='200px'/></p> <p style='position: absolute; top: 40%;left: 20%'><img src='img/s2.jpeg' width='200px'/></p> <p style='position: absolute; top: 40%;right: 45%'><img src='img/reward.jpeg' width='200px'/></p>","null","","","","","",""
"html-keyboard-response","31","73158","0.0-4.0-3.6","null","<p style=""font-size: 48px"">+</p>","null","","","","","",""
"html-button-response","32","73915","0.0-4.0-0.7","756.2650000036228","","","","0","2","1","1","0"
"html-keyboard-response","33","74417","0.0-4.0-1.7","null","<p style='position: absolute; top: 40%;right: 20%'><img src='img/s1s.jpeg' width='200px'/></p> <p style='position: absolute; top: 40%;left: 20%'><img src='img/s2.jpeg' width='200px'/></p>","null","","","","","",""
"html-keyboard-response","34","75422","0.0-4.0-2.7","null","<p style='position: absolute; top: 40%;right: 20%'><img src='img/s1s.jpeg' width='200px'/></p> <p style='position: absolute; top: 40%;left: 20%'><img src='img/s2.jpeg' width='200px'/></p> <p style='position: absolute; top: 40%;right: 45%'><img src='img/reward.jpeg' width='200px'/></p>","null","","","","","",""
"html-keyboard-response","35","76107","0.0-4.0-3.7","null","<p style=""font-size: 48px"">+</p>","null","","","","","",""
"html-button-response","36","77303","0.0-4.0-0.8","1195.609999995213","","","","0","1","2","0","0"
"html-keyboard-response","37","77805","0.0-4.0-1.8","null","<p style='position: absolute; top: 40%;left: 20%'><img src='img/s1s.jpeg' width='200px'/></p> <p style='position: absolute; top: 40%;right: 20%'><img src='img/s2.jpeg' width='200px'/></p>","null","","","","","",""
"html-keyboard-response","38","78806","0.0-4.0-2.8","null","<p style='position: absolute; top: 40%;left: 20%'><img src='img/s1s.jpeg' width='200px'/></p> <p style='position: absolute; top: 40%;right: 20%'><img src='img/s2.jpeg' width='200px'/></p> <p style='position: absolute; top: 40%;right: 45%'><img src='img/punishment.jpeg' width='200px'/></p>","null","","","","","",""
"html-keyboard-response","39","79536","0.0-4.0-3.8","null","<p style=""font-size: 48px"">+</p>","null","","","","","",""
"html-button-response","40","80805","0.0-4.0-0.9","1268.1650000013178","","","","0","2","1","0","0"
"html-keyboard-response","41","81308","0.0-4.0-1.9","null","<p style='position: absolute; top: 40%;right: 20%'><img src='img/s1s.jpeg' width='200px'/></p> <p style='position: absolute; top: 40%;left: 20%'><img src='img/s2.jpeg' width='200px'/></p>","null","","","","","",""
"html-keyboard-response","42","82311","0.0-4.0-2.9","null","<p style='position: absolute; top: 40%;right: 20%'><img src='img/s1s.jpeg' width='200px'/></p> <p style='position: absolute; top: 40%;left: 20%'><img src='img/s2.jpeg' width='200px'/></p> <p style='position: absolute; top: 40%;right: 45%'><img src='img/punishment.jpeg' width='200px'/></p>","null","","","","","",""
"html-keyboard-response","43","83108","0.0-4.0-3.9","null","<p style=""font-size: 48px"">+</p>","null","","","","","",""
"html-button-response","44","83607","0.0-4.0-0.10","498.2400000008056","","","","0","2","1","1","0"
"html-keyboard-response","45","84111","0.0-4.0-1.10","null","<p style='position: absolute; top: 40%;right: 20%'><img src='img/s1s.jpeg' width='200px'/></p> <p style='position: absolute; top: 40%;left: 20%'><img src='img/s2.jpeg' width='200px'/></p>","null","","","","","",""
"html-keyboard-response","46","85113","0.0-4.0-2.10","null","<p style='position: absolute; top: 40%;right: 20%'><img src='img/s1s.jpeg' width='200px'/></p> <p style='position: absolute; top: 40%;left: 20%'><img src='img/s2.jpeg' width='200px'/></p> <p style='position: absolute; top: 40%;right: 45%'><img src='img/reward.jpeg' width='200px'/></p>","null","","","","","",""
"html-keyboard-response","47","86206","0.0-4.0-3.10","null","<p style=""font-size: 48px"">+</p>","null","","","","","",""
"html-button-response","48","87361","0.0-4.0-0.11","1153.8150000051246","","","","0","1","2","1","0"
"html-keyboard-response","49","87866","0.0-4.0-1.11","null","<p style='position: absolute; top: 40%;left: 20%'><img src='img/s1s.jpeg' width='200px'/></p> <p style='position: absolute; top: 40%;right: 20%'><img src='img/s2.jpeg' width='200px'/></p>","null","","","","","",""
"html-keyboard-response","50","88868","0.0-4.0-2.11","null","<p style='position: absolute; top: 40%;left: 20%'><img src='img/s1s.jpeg' width='200px'/></p> <p style='position: absolute; top: 40%;right: 20%'><img src='img/s2.jpeg' width='200px'/></p> <p style='position: absolute; top: 40%;right: 45%'><img src='img/reward.jpeg' width='200px'/></p>","null","","","","","",""
"html-keyboard-response","51","89649","0.0-4.0-3.11","null","<p style=""font-size: 48px"">+</p>","null","","","","","",""
"html-button-response","52","90421","0.0-4.0-0.12","771.0500000030152","","","","0","2","1","1","0"
"html-keyboard-response","53","90926","0.0-4.0-1.12","null","<p style='position: absolute; top: 40%;right: 20%'><img src='img/s1s.jpeg' width='200px'/></p> <p style='position: absolute; top: 40%;left: 20%'><img src='img/s2.jpeg' width='200px'/></p>","null","","","","","",""
"html-keyboard-response","54","91930","0.0-4.0-2.12","null","<p style='position: absolute; top: 40%;right: 20%'><img src='img/s1s.jpeg' width='200px'/></p> <p style='position: absolute; top: 40%;left: 20%'><img src='img/s2.jpeg' width='200px'/></p> <p style='position: absolute; top: 40%;right: 45%'><img src='img/reward.jpeg' width='200px'/></p>","null","","","","","",""
"html-keyboard-response","55","93295","0.0-4.0-3.12","null","<p style=""font-size: 48px"">+</p>","null","","","","","",""
"html-button-response","56","94303","0.0-4.0-0.13","1006.7549999948824","","","","0","2","1","1","0"
"html-keyboard-response","57","94804","0.0-4.0-1.13","null","<p style='position: absolute; top: 40%;right: 20%'><img src='img/s1s.jpeg' width='200px'/></p> <p style='position: absolute; top: 40%;left: 20%'><img src='img/s2.jpeg' width='200px'/></p>","null","","","","","",""
"html-keyboard-response","58","95805","0.0-4.0-2.13","null","<p style='position: absolute; top: 40%;right: 20%'><img src='img/s1s.jpeg' width='200px'/></p> <p style='position: absolute; top: 40%;left: 20%'><img src='img/s2.jpeg' width='200px'/></p> <p style='position: absolute; top: 40%;right: 45%'><img src='img/reward.jpeg' width='200px'/></p>","null","","","","","",""
"html-keyboard-response","59","97231","0.0-4.0-3.13","null","<p style=""font-size: 48px"">+</p>","null","","","","","",""
"html-button-response","60","98201","0.0-4.0-0.14","968.7850000045728","","","","0","1","2","1","0"
"html-keyboard-response","61","98704","0.0-4.0-1.14","null","<p style='position: absolute; top: 40%;left: 20%'><img src='img/s1s.jpeg' width='200px'/></p> <p style='position: absolute; top: 40%;right: 20%'><img src='img/s2.jpeg' width='200px'/></p>","null","","","","","",""
"html-keyboard-response","62","99708","0.0-4.0-2.14","null","<p style='position: absolute; top: 40%;left: 20%'><img src='img/s1s.jpeg' width='200px'/></p> <p style='position: absolute; top: 40%;right: 20%'><img src='img/s2.jpeg' width='200px'/></p> <p style='position: absolute; top: 40%;right: 45%'><img src='img/reward.jpeg' width='200px'/></p>","null","","","","","",""
"html-keyboard-response","63","101168","0.0-4.0-3.14","null","<p style=""font-size: 48px"">+</p>","null","","","","","",""
"html-button-response","64","101973","0.0-4.0-0.15","803.7400000030175","","","","0","1","2","1","1"
"html-keyboard-response","65","102474","0.0-4.0-1.15","null","<p style='position: absolute; top: 40%;left: 20%'><img src='img/s1s.jpeg' width='200px'/></p> <p style='position: absolute; top: 40%;right: 20%'><img src='img/s2.jpeg' width='200px'/></p>","null","","","","","",""
"html-keyboard-response","66","103477","0.0-4.0-2.15","null","<p style='position: absolute; top: 40%;left: 20%'><img src='img/s1s.jpeg' width='200px'/></p> <p style='position: absolute; top: 40%;right: 20%'><img src='img/s2.jpeg' width='200px'/></p> <p style='position: absolute; top: 40%;right: 45%'><img src='img/reward.jpeg' width='200px'/></p>","null","","","","","",""
"html-keyboard-response","67","104398","0.0-4.0-3.15","null","<p style=""font-size: 48px"">+</p>","null","","","","","",""
"html-button-response","68","104953","0.0-4.0-0.16","554.3350000007194","","","","0","1","2","0","0"
"html-keyboard-response","69","105455","0.0-4.0-1.16","null","<p style='position: absolute; top: 40%;left: 20%'><img src='img/s1s.jpeg' width='200px'/></p> <p style='position: absolute; top: 40%;right: 20%'><img src='img/s2.jpeg' width='200px'/></p>","null","","","","","",""
"html-keyboard-response","70","106460","0.0-4.0-2.16","null","<p style='position: absolute; top: 40%;left: 20%'><img src='img/s1s.jpeg' width='200px'/></p> <p style='position: absolute; top: 40%;right: 20%'><img src='img/s2.jpeg' width='200px'/></p> <p style='position: absolute; top: 40%;right: 45%'><img src='img/punishment.jpeg' width='200px'/></p>","null","","","","","",""
"html-keyboard-response","71","107057","0.0-4.0-3.16","null","<p style=""font-size: 48px"">+</p>","null","","","","","",""
"html-button-response","72","107543","0.0-4.0-0.17","485.1550000021234","","","","0","1","2","1","1"
"html-keyboard-response","73","108049","0.0-4.0-1.17","null","<p style='position: absolute; top: 40%;left: 20%'><img src='img/s1s.jpeg' width='200px'/></p> <p style='position: absolute; top: 40%;right: 20%'><img src='img/s2.jpeg' width='200px'/></p>","null","","","","","",""
"html-keyboard-response","74","109053","0.0-4.0-2.17","null","<p style='position: absolute; top: 40%;left: 20%'><img src='img/s1s.jpeg' width='200px'/></p> <p style='position: absolute; top: 40%;right: 20%'><img src='img/s2.jpeg' width='200px'/></p> <p style='position: absolute; top: 40%;right: 45%'><img src='img/reward.jpeg' width='200px'/></p>","null","","","","","",""
"html-keyboard-response","75","110240","0.0-4.0-3.17","null","<p style=""font-size: 48px"">+</p>","null","","","","","",""
"html-button-response","76","111565","0.0-4.0-0.18","1324.1350000025705","","","","0","2","1","1","0"
"html-keyboard-response","77","112068","0.0-4.0-1.18","null","<p style='position: absolute; top: 40%;right: 20%'><img src='img/s1s.jpeg' width='200px'/></p> <p style='position: absolute; top: 40%;left: 20%'><img src='img/s2.jpeg' width='200px'/></p>","null","","","","","",""
"html-keyboard-response","78","113072","0.0-4.0-2.18","null","<p style='position: absolute; top: 40%;right: 20%'><img src='img/s1s.jpeg' width='200px'/></p> <p style='position: absolute; top: 40%;left: 20%'><img src='img/s2.jpeg' width='200px'/></p> <p style='position: absolute; top: 40%;right: 45%'><img src='img/reward.jpeg' width='200px'/></p>","null","","","","","",""
"html-keyboard-response","79","113726","0.0-4.0-3.18","null","<p style=""font-size: 48px"">+</p>","null","","","","","",""
"html-button-response","80","114513","0.0-4.0-0.19","785.4700000025332","","","","0","2","1","0","0"
"html-keyboard-response","81","115016","0.0-4.0-1.19","null","<p style='position: absolute; top: 40%;right: 20%'><img src='img/s1s.jpeg' width='200px'/></p> <p style='position: absolute; top: 40%;left: 20%'><img src='img/s2.jpeg' width='200px'/></p>","null","","","","","",""
"html-keyboard-response","82","116017","0.0-4.0-2.19","null","<p style='position: absolute; top: 40%;right: 20%'><img src='img/s1s.jpeg' width='200px'/></p> <p style='position: absolute; top: 40%;left: 20%'><img src='img/s2.jpeg' width='200px'/></p> <p style='position: absolute; top: 40%;right: 45%'><img src='img/punishment.jpeg' width='200px'/></p>","null","","","","","",""
"html-keyboard-response","83","117459","0.0-4.0-3.19","null","<p style=""font-size: 48px"">+</p>","null","","","","","",""
"html-button-response","84","118079","0.0-4.0-0.20","618.8299999994342","","","","0","2","1","1","1"
"html-keyboard-response","85","118585","0.0-4.0-1.20","null","<p style='position: absolute; top: 40%;right: 20%'><img src='img/s1s.jpeg' width='200px'/></p> <p style='position: absolute; top: 40%;left: 20%'><img src='img/s2.jpeg' width='200px'/></p>","null","","","","","",""
"html-keyboard-response","86","119589","0.0-4.0-2.20","null","<p style='position: absolute; top: 40%;right: 20%'><img src='img/s1s.jpeg' width='200px'/></p> <p style='position: absolute; top: 40%;left: 20%'><img src='img/s2.jpeg' width='200px'/></p> <p style='position: absolute; top: 40%;right: 45%'><img src='img/reward.jpeg' width='200px'/></p>","null","","","","","",""
"html-keyboard-response","87","120291","0.0-4.0-3.20","null","<p style=""font-size: 48px"">+</p>","null","","","","","",""
"html-button-response","88","121397","0.0-4.0-0.21","1105.649999997695","","","","0","1","2","1","0"
"html-keyboard-response","89","121898","0.0-4.0-1.21","null","<p style='position: absolute; top: 40%;left: 20%'><img src='img/s1s.jpeg' width='200px'/></p> <p style='position: absolute; top: 40%;right: 20%'><img src='img/s2.jpeg' width='200px'/></p>","null","","","","","",""
"html-keyboard-response","90","122902","0.0-4.0-2.21","null","<p style='position: absolute; top: 40%;left: 20%'><img src='img/s1s.jpeg' width='200px'/></p> <p style='position: absolute; top: 40%;right: 20%'><img src='img/s2.jpeg' width='200px'/></p> <p style='position: absolute; top: 40%;right: 45%'><img src='img/reward.jpeg' width='200px'/></p>","null","","","","","",""
"html-keyboard-response","91","123461","0.0-4.0-3.21","null","<p style=""font-size: 48px"">+</p>","null","","","","","",""
"html-button-response","92","124659","0.0-4.0-0.22","1197.3900000011781","","","","0","2","1","1","0"
"html-keyboard-response","93","125162","0.0-4.0-1.22","null","<p style='position: absolute; top: 40%;right: 20%'><img src='img/s1s.jpeg' width='200px'/></p> <p style='position: absolute; top: 40%;left: 20%'><img src='img/s2.jpeg' width='200px'/></p>","null","","","","","",""
"html-keyboard-response","94","126165","0.0-4.0-2.22","null","<p style='position: absolute; top: 40%;right: 20%'><img src='img/s1s.jpeg' width='200px'/></p> <p style='position: absolute; top: 40%;left: 20%'><img src='img/s2.jpeg' width='200px'/></p> <p style='position: absolute; top: 40%;right: 45%'><img src='img/reward.jpeg' width='200px'/></p>","null","","","","","",""
"html-keyboard-response","95","127536","0.0-4.0-3.22","null","<p style=""font-size: 48px"">+</p>","null","","","","","",""
"html-button-response","96","128661","0.0-4.0-0.23","1123.8650000013877","","","","0","2","1","0","0"
"html-keyboard-response","97","129167","0.0-4.0-1.23","null","<p style='position: absolute; top: 40%;right: 20%'><img src='img/s1s.jpeg' width='200px'/></p> <p style='position: absolute; top: 40%;left: 20%'><img src='img/s2.jpeg' width='200px'/></p>","null","","","","","",""
"html-keyboard-response","98","130171","0.0-4.0-2.23","null","<p style='position: absolute; top: 40%;right: 20%'><img src='img/s1s.jpeg' width='200px'/></p> <p style='position: absolute; top: 40%;left: 20%'><img src='img/s2.jpeg' width='200px'/></p> <p style='position: absolute; top: 40%;right: 45%'><img src='img/punishment.jpeg' width='200px'/></p>","null","","","","","",""
"html-keyboard-response","99","131095","0.0-4.0-3.23","null","<p style=""font-size: 48px"">+</p>","null","","","","","",""
"html-button-response","100","132081","0.0-4.0-0.24","985.3849999999511","","","","0","1","2","1","0"
"html-keyboard-response","101","132586","0.0-4.0-1.24","null","<p style='position: absolute; top: 40%;left: 20%'><img src='img/s1s.jpeg' width='200px'/></p> <p style='position: absolute; top: 40%;right: 20%'><img src='img/s2.jpeg' width='200px'/></p>","null","","","","","",""
"html-keyboard-response","102","133588","0.0-4.0-2.24","null","<p style='position: absolute; top: 40%;left: 20%'><img src='img/s1s.jpeg' width='200px'/></p> <p style='position: absolute; top: 40%;right: 20%'><img src='img/s2.jpeg' width='200px'/></p> <p style='position: absolute; top: 40%;right: 45%'><img src='img/reward.jpeg' width='200px'/></p>","null","","","","","",""
"html-keyboard-response","103","134571","0.0-4.0-3.24","null","<p style=""font-size: 48px"">+</p>","null","","","","","",""
"html-button-response","104","135663","0.0-4.0-0.25","1090.8350000026985","","","","0","1","2","1","0"
"html-keyboard-response","105","136168","0.0-4.0-1.25","null","<p style='position: absolute; top: 40%;left: 20%'><img src='img/s1s.jpeg' width='200px'/></p> <p style='position: absolute; top: 40%;right: 20%'><img src='img/s2.jpeg' width='200px'/></p>","null","","","","","",""
"html-keyboard-response","106","137173","0.0-4.0-2.25","null","<p style='position: absolute; top: 40%;left: 20%'><img src='img/s1s.jpeg' width='200px'/></p> <p style='position: absolute; top: 40%;right: 20%'><img src='img/s2.jpeg' width='200px'/></p> <p style='position: absolute; top: 40%;right: 45%'><img src='img/reward.jpeg' width='200px'/></p>","null","","","","","",""
"html-keyboard-response","107","138553","0.0-4.0-3.25","null","<p style=""font-size: 48px"">+</p>","null","","","","","",""
"html-button-response","108","139775","0.0-4.0-0.26","1221.0699999995995","","","","0","2","1","1","0"
"html-keyboard-response","109","140278","0.0-4.0-1.26","null","<p style='position: absolute; top: 40%;right: 20%'><img src='img/s1s.jpeg' width='200px'/></p> <p style='position: absolute; top: 40%;left: 20%'><img src='img/s2.jpeg' width='200px'/></p>","null","","","","","",""
"html-keyboard-response","110","141281","0.0-4.0-2.26","null","<p style='position: absolute; top: 40%;right: 20%'><img src='img/s1s.jpeg' width='200px'/></p> <p style='position: absolute; top: 40%;left: 20%'><img src='img/s2.jpeg' width='200px'/></p> <p style='position: absolute; top: 40%;right: 45%'><img src='img/reward.jpeg' width='200px'/></p>","null","","","","","",""
"html-keyboard-response","111","142433","0.0-4.0-3.26","null","<p style=""font-size: 48px"">+</p>","null","","","","","",""
"html-button-response","112","143455","0.0-4.0-0.27","1021.1149999959162","","","","0","2","1","1","0"
"html-keyboard-response","113","143958","0.0-4.0-1.27","null","<p style='position: absolute; top: 40%;right: 20%'><img src='img/s1s.jpeg' width='200px'/></p> <p style='position: absolute; top: 40%;left: 20%'><img src='img/s2.jpeg' width='200px'/></p>","null","","","","","",""
"html-keyboard-response","114","144961","0.0-4.0-2.27","null","<p style='position: absolute; top: 40%;right: 20%'><img src='img/s1s.jpeg' width='200px'/></p> <p style='position: absolute; top: 40%;left: 20%'><img src='img/s2.jpeg' width='200px'/></p> <p style='position: absolute; top: 40%;right: 45%'><img src='img/reward.jpeg' width='200px'/></p>","null","","","","","",""
"html-keyboard-response","115","145513","0.0-4.0-3.27","null","<p style=""font-size: 48px"">+</p>","null","","","","","",""
"html-button-response","116","147019","0.0-4.0-0.28","1504.625000001397","","","","0","1","2","0","1"
"html-keyboard-response","117","147520","0.0-4.0-1.28","null","<p style='position: absolute; top: 40%;left: 20%'><img src='img/s1s.jpeg' width='200px'/></p> <p style='position: absolute; top: 40%;right: 20%'><img src='img/s2.jpeg' width='200px'/></p>","null","","","","","",""
"html-keyboard-response","118","148524","0.0-4.0-2.28","null","<p style='position: absolute; top: 40%;left: 20%'><img src='img/s1s.jpeg' width='200px'/></p> <p style='position: absolute; top: 40%;right: 20%'><img src='img/s2.jpeg' width='200px'/></p> <p style='position: absolute; top: 40%;right: 45%'><img src='img/punishment.jpeg' width='200px'/></p>","null","","","","","",""
"html-keyboard-response","119","149964","0.0-4.0-3.28","null","<p style=""font-size: 48px"">+</p>","null","","","","","",""
"html-button-response","120","150893","0.0-4.0-0.29","927.7000000001863","","","","0","1","2","1","0"
"html-keyboard-response","121","151397","0.0-4.0-1.29","null","<p style='position: absolute; top: 40%;left: 20%'><img src='img/s1s.jpeg' width='200px'/></p> <p style='position: absolute; top: 40%;right: 20%'><img src='img/s2.jpeg' width='200px'/></p>","null","","","","","",""
"html-keyboard-response","122","152401","0.0-4.0-2.29","null","<p style='position: absolute; top: 40%;left: 20%'><img src='img/s1s.jpeg' width='200px'/></p> <p style='position: absolute; top: 40%;right: 20%'><img src='img/s2.jpeg' width='200px'/></p> <p style='position: absolute; top: 40%;right: 45%'><img src='img/reward.jpeg' width='200px'/></p>","null","","","","","",""
"html-keyboard-response","123","153744","0.0-4.0-3.29","null","<p style=""font-size: 48px"">+</p>","null","","","","","",""
"html-button-response","124","154895","0.0-4.0-0.30","1149.8649999994086","","","","0","2","1","1","0"
"html-keyboard-response","125","155398","0.0-4.0-1.30","null","<p style='position: absolute; top: 40%;right: 20%'><img src='img/s1s.jpeg' width='200px'/></p> <p style='position: absolute; top: 40%;left: 20%'><img src='img/s2.jpeg' width='200px'/></p>","null","","","","","",""
"html-keyboard-response","126","156403","0.0-4.0-2.30","null","<p style='position: absolute; top: 40%;right: 20%'><img src='img/s1s.jpeg' width='200px'/></p> <p style='position: absolute; top: 40%;left: 20%'><img src='img/s2.jpeg' width='200px'/></p> <p style='position: absolute; top: 40%;right: 45%'><img src='img/reward.jpeg' width='200px'/></p>","null","","","","","",""
"html-keyboard-response","127","157872","0.0-4.0-3.30","null","<p style=""font-size: 48px"">+</p>","null","","","","","",""
"html-button-response","128","158463","0.0-4.0-0.31","589.8949999973411","","","","0","2","1","1","0"
"html-keyboard-response","129","158969","0.0-4.0-1.31","null","<p style='position: absolute; top: 40%;right: 20%'><img src='img/s1s.jpeg' width='200px'/></p> <p style='position: absolute; top: 40%;left: 20%'><img src='img/s2.jpeg' width='200px'/></p>","null","","","","","",""
"html-keyboard-response","130","159972","0.0-4.0-2.31","null","<p style='position: absolute; top: 40%;right: 20%'><img src='img/s1s.jpeg' width='200px'/></p> <p style='position: absolute; top: 40%;left: 20%'><img src='img/s2.jpeg' width='200px'/></p> <p style='position: absolute; top: 40%;right: 45%'><img src='img/reward.jpeg' width='200px'/></p>","null","","","","","",""
"html-keyboard-response","131","161135","0.0-4.0-3.31","null","<p style=""font-size: 48px"">+</p>","null","","","","","",""
"html-button-response","132","162353","0.0-4.0-0.32","1217.7750000046217","","","","0","1","2","0","1"
"html-keyboard-response","133","162858","0.0-4.0-1.32","null","<p style='position: absolute; top: 40%;left: 20%'><img src='img/s1s.jpeg' width='200px'/></p> <p style='position: absolute; top: 40%;right: 20%'><img src='img/s2.jpeg' width='200px'/></p>","null","","","","","",""
"html-keyboard-response","134","163861","0.0-4.0-2.32","null","<p style='position: absolute; top: 40%;left: 20%'><img src='img/s1s.jpeg' width='200px'/></p> <p style='position: absolute; top: 40%;right: 20%'><img src='img/s2.jpeg' width='200px'/></p> <p style='position: absolute; top: 40%;right: 45%'><img src='img/punishment.jpeg' width='200px'/></p>","null","","","","","",""
"html-keyboard-response","135","165360","0.0-4.0-3.32","null","<p style=""font-size: 48px"">+</p>","null","","","","","",""
"html-button-response","136","166153","0.0-4.0-0.33","792.8549999996903","","","","0","1","2","1","1"
"html-keyboard-response","137","166659","0.0-4.0-1.33","null","<p style='position: absolute; top: 40%;left: 20%'><img src='img/s1s.jpeg' width='200px'/></p> <p style='position: absolute; top: 40%;right: 20%'><img src='img/s2.jpeg' width='200px'/></p>","null","","","","","",""
"html-keyboard-response","138","167664","0.0-4.0-2.33","null","<p style='position: absolute; top: 40%;left: 20%'><img src='img/s1s.jpeg' width='200px'/></p> <p style='position: absolute; top: 40%;right: 20%'><img src='img/s2.jpeg' width='200px'/></p> <p style='position: absolute; top: 40%;right: 45%'><img src='img/reward.jpeg' width='200px'/></p>","null","","","","","",""
"html-keyboard-response","139","168273","0.0-4.0-3.33","null","<p style=""font-size: 48px"">+</p>","null","","","","","",""
"html-button-response","140","170241","0.0-4.0-0.34","1967.3249999977998","","","","0","2","1","1","0"
"html-keyboard-response","141","170742","0.0-4.0-1.34","null","<p style='position: absolute; top: 40%;right: 20%'><img src='img/s1s.jpeg' width='200px'/></p> <p style='position: absolute; top: 40%;left: 20%'><img src='img/s2.jpeg' width='200px'/></p>","null","","","","","",""
"html-keyboard-response","142","171747","0.0-4.0-2.34","null","<p style='position: absolute; top: 40%;right: 20%'><img src='img/s1s.jpeg' width='200px'/></p> <p style='position: absolute; top: 40%;left: 20%'><img src='img/s2.jpeg' width='200px'/></p> <p style='position: absolute; top: 40%;right: 45%'><img src='img/reward.jpeg' width='200px'/></p>","null","","","","","",""
"html-keyboard-response","143","172968","0.0-4.0-3.34","null","<p style=""font-size: 48px"">+</p>","null","","","","","",""
"html-button-response","144","173965","0.0-4.0-0.35","995.7250000006752","","","","0","2","1","1","0"
"html-keyboard-response","145","174467","0.0-4.0-1.35","null","<p style='position: absolute; top: 40%;right: 20%'><img src='img/s1s.jpeg' width='200px'/></p> <p style='position: absolute; top: 40%;left: 20%'><img src='img/s2.jpeg' width='200px'/></p>","null","","","","","",""
"html-keyboard-response","146","175471","0.0-4.0-2.35","null","<p style='position: absolute; top: 40%;right: 20%'><img src='img/s1s.jpeg' width='200px'/></p> <p style='position: absolute; top: 40%;left: 20%'><img src='img/s2.jpeg' width='200px'/></p> <p style='position: absolute; top: 40%;right: 45%'><img src='img/reward.jpeg' width='200px'/></p>","null","","","","","",""
"html-keyboard-response","147","176014","0.0-4.0-3.35","null","<p style=""font-size: 48px"">+</p>","null","","","","","",""
"html-button-response","148","176575","0.0-4.0-0.36","560.6249999982538","","","","0","2","1","0","0"
"html-keyboard-response","149","177078","0.0-4.0-1.36","null","<p style='position: absolute; top: 40%;right: 20%'><img src='img/s1s.jpeg' width='200px'/></p> <p style='position: absolute; top: 40%;left: 20%'><img src='img/s2.jpeg' width='200px'/></p>","null","","","","","",""
"html-keyboard-response","150","178084","0.0-4.0-2.36","null","<p style='position: absolute; top: 40%;right: 20%'><img src='img/s1s.jpeg' width='200px'/></p> <p style='position: absolute; top: 40%;left: 20%'><img src='img/s2.jpeg' width='200px'/></p> <p style='position: absolute; top: 40%;right: 45%'><img src='img/punishment.jpeg' width='200px'/></p>","null","","","","","",""
"html-keyboard-response","151","178942","0.0-4.0-3.36","null","<p style=""font-size: 48px"">+</p>","null","","","","","",""
"html-button-response","152","180133","0.0-4.0-0.37","1190.3349999993225","","","","0","1","2","1","0"
"html-keyboard-response","153","180638","0.0-4.0-1.37","null","<p style='position: absolute; top: 40%;left: 20%'><img src='img/s1s.jpeg' width='200px'/></p> <p style='position: absolute; top: 40%;right: 20%'><img src='img/s2.jpeg' width='200px'/></p>","null","","","","","",""
"html-keyboard-response","154","181641","0.0-4.0-2.37","null","<p style='position: absolute; top: 40%;left: 20%'><img src='img/s1s.jpeg' width='200px'/></p> <p style='position: absolute; top: 40%;right: 20%'><img src='img/s2.jpeg' width='200px'/></p> <p style='position: absolute; top: 40%;right: 45%'><img src='img/reward.jpeg' width='200px'/></p>","null","","","","","",""
"html-keyboard-response","155","182507","0.0-4.0-3.37","null","<p style=""font-size: 48px"">+</p>","null","","","","","",""
"html-button-response","156","183347","0.0-4.0-0.38","839.4050000060815","","","","0","1","2","1","0"
"html-keyboard-response","157","183853","0.0-4.0-1.38","null","<p style='position: absolute; top: 40%;left: 20%'><img src='img/s1s.jpeg' width='200px'/></p> <p style='position: absolute; top: 40%;right: 20%'><img src='img/s2.jpeg' width='200px'/></p>","null","","","","","",""
"html-keyboard-response","158","184858","0.0-4.0-2.38","null","<p style='position: absolute; top: 40%;left: 20%'><img src='img/s1s.jpeg' width='200px'/></p> <p style='position: absolute; top: 40%;right: 20%'><img src='img/s2.jpeg' width='200px'/></p> <p style='position: absolute; top: 40%;right: 45%'><img src='img/reward.jpeg' width='200px'/></p>","null","","","","","",""
"html-keyboard-response","159","186244","0.0-4.0-3.38","null","<p style=""font-size: 48px"">+</p>","null","","","","","",""
"html-button-response","160","186847","0.0-4.0-0.39","601.8149999945308","","","","0","1","2","1","0"
"html-keyboard-response","161","187353","0.0-4.0-1.39","null","<p style='position: absolute; top: 40%;left: 20%'><img src='img/s1s.jpeg' width='200px'/></p> <p style='position: absolute; top: 40%;right: 20%'><img src='img/s2.jpeg' width='200px'/></p>","null","","","","","",""
"html-keyboard-response","162","188357","0.0-4.0-2.39","null","<p style='position: absolute; top: 40%;left: 20%'><img src='img/s1s.jpeg' width='200px'/></p> <p style='position: absolute; top: 40%;right: 20%'><img src='img/s2.jpeg' width='200px'/></p> <p style='position: absolute; top: 40%;right: 45%'><img src='img/reward.jpeg' width='200px'/></p>","null","","","","","",""
"html-keyboard-response","163","189112","0.0-4.0-3.39","null","<p style=""font-size: 48px"">+</p>","null","","","","","",""
"html-button-response","164","189809","0.0-4.0-0.40","696.2149999963003","","","","0","1","2","0","1"
"html-keyboard-response","165","190315","0.0-4.0-1.40","null","<p style='position: absolute; top: 40%;left: 20%'><img src='img/s1s.jpeg' width='200px'/></p> <p style='position: absolute; top: 40%;right: 20%'><img src='img/s2.jpeg' width='200px'/></p>","null","","","","","",""
"html-keyboard-response","166","191318","0.0-4.0-2.40","null","<p style='position: absolute; top: 40%;left: 20%'><img src='img/s1s.jpeg' width='200px'/></p> <p style='position: absolute; top: 40%;right: 20%'><img src='img/s2.jpeg' width='200px'/></p> <p style='position: absolute; top: 40%;right: 45%'><img src='img/punishment.jpeg' width='200px'/></p>","null","","","","","",""
"html-keyboard-response","167","192095","0.0-4.0-3.40","null","<p style=""font-size: 48px"">+</p>","null","","","","","",""
"html-button-response","168","193463","0.0-4.0-0.41","1366.7700000005425","","","","0","2","1","0","1"
"html-keyboard-response","169","193965","0.0-4.0-1.41","null","<p style='position: absolute; top: 40%;right: 20%'><img src='img/s1s.jpeg' width='200px'/></p> <p style='position: absolute; top: 40%;left: 20%'><img src='img/s2.jpeg' width='200px'/></p>","null","","","","","",""
"html-keyboard-response","170","194969","0.0-4.0-2.41","null","<p style='position: absolute; top: 40%;right: 20%'><img src='img/s1s.jpeg' width='200px'/></p> <p style='position: absolute; top: 40%;left: 20%'><img src='img/s2.jpeg' width='200px'/></p> <p style='position: absolute; top: 40%;right: 45%'><img src='img/punishment.jpeg' width='200px'/></p>","null","","","","","",""
"html-keyboard-response","171","196303","0.0-4.0-3.41","null","<p style=""font-size: 48px"">+</p>","null","","","","","",""
"html-button-response","172","197183","0.0-4.0-0.42","879.5350000000326","","","","0","2","1","0","1"
"html-keyboard-response","173","197684","0.0-4.0-1.42","null","<p style='position: absolute; top: 40%;right: 20%'><img src='img/s1s.jpeg' width='200px'/></p> <p style='position: absolute; top: 40%;left: 20%'><img src='img/s2.jpeg' width='200px'/></p>","null","","","","","",""
"html-keyboard-response","174","198689","0.0-4.0-2.42","null","<p style='position: absolute; top: 40%;right: 20%'><img src='img/s1s.jpeg' width='200px'/></p> <p style='position: absolute; top: 40%;left: 20%'><img src='img/s2.jpeg' width='200px'/></p> <p style='position: absolute; top: 40%;right: 45%'><img src='img/punishment.jpeg' width='200px'/></p>","null","","","","","",""
"html-keyboard-response","175","199502","0.0-4.0-3.42","null","<p style=""font-size: 48px"">+</p>","null","","","","","",""
"html-button-response","176","200163","0.0-4.0-0.43","660.2500000008149","","","","1","1","2","1","1"
"html-keyboard-response","177","200669","0.0-4.0-1.43","null","<p style='position: absolute; top: 40%;left: 20%'><img src='img/s1.jpeg' width='200px'/></p> <p style='position: absolute; top: 40%;right: 20%'><img src='img/s2s.jpeg' width='200px'/></p>","null","","","","","",""
"html-keyboard-response","178","201674","0.0-4.0-2.43","null","<p style='position: absolute; top: 40%;left: 20%'><img src='img/s1.jpeg' width='200px'/></p> <p style='position: absolute; top: 40%;right: 20%'><img src='img/s2s.jpeg' width='200px'/></p> <p style='position: absolute; top: 40%;right: 45%'><img src='img/reward.jpeg' width='200px'/></p>","null","","","","","",""
"html-keyboard-response","179","202848","0.0-4.0-3.43","null","<p style=""font-size: 48px"">+</p>","null","","","","","",""
"html-button-response","180","203371","0.0-4.0-0.44","523.0000000010477","","","","1","1","2","0","1"
"html-keyboard-response","181","203873","0.0-4.0-1.44","null","<p style='position: absolute; top: 40%;left: 20%'><img src='img/s1.jpeg' width='200px'/></p> <p style='position: absolute; top: 40%;right: 20%'><img src='img/s2s.jpeg' width='200px'/></p>","null","","","","","",""
"html-keyboard-response","182","204878","0.0-4.0-2.44","null","<p style='position: absolute; top: 40%;left: 20%'><img src='img/s1.jpeg' width='200px'/></p> <p style='position: absolute; top: 40%;right: 20%'><img src='img/s2s.jpeg' width='200px'/></p> <p style='position: absolute; top: 40%;right: 45%'><img src='img/reward.jpeg' width='200px'/></p>","null","","","","","",""
"html-keyboard-response","183","205742","0.0-4.0-3.44","null","<p style=""font-size: 48px"">+</p>","null","","","","","",""
"html-button-response","184","206263","0.0-4.0-0.45","519.9700000011944","","","","1","1","2","1","1"
"html-keyboard-response","185","206766","0.0-4.0-1.45","null","<p style='position: absolute; top: 40%;left: 20%'><img src='img/s1.jpeg' width='200px'/></p> <p style='position: absolute; top: 40%;right: 20%'><img src='img/s2s.jpeg' width='200px'/></p>","null","","","","","",""
"html-keyboard-response","186","207768","0.0-4.0-2.45","null","<p style='position: absolute; top: 40%;left: 20%'><img src='img/s1.jpeg' width='200px'/></p> <p style='position: absolute; top: 40%;right: 20%'><img src='img/s2s.jpeg' width='200px'/></p> <p style='position: absolute; top: 40%;right: 45%'><img src='img/reward.jpeg' width='200px'/></p>","null","","","","","",""
"html-keyboard-response","187","208488","0.0-4.0-3.45","null","<p style=""font-size: 48px"">+</p>","null","","","","","",""
"html-button-response","188","209693","0.0-4.0-0.46","1204.9750000005588","","","","1","2","1","0","0"
"html-keyboard-response","189","210195","0.0-4.0-1.46","null","<p style='position: absolute; top: 40%;right: 20%'><img src='img/s1.jpeg' width='200px'/></p> <p style='position: absolute; top: 40%;left: 20%'><img src='img/s2s.jpeg' width='200px'/></p>","null","","","","","",""
"html-keyboard-response","190","211199","0.0-4.0-2.46","null","<p style='position: absolute; top: 40%;right: 20%'><img src='img/s1.jpeg' width='200px'/></p> <p style='position: absolute; top: 40%;left: 20%'><img src='img/s2s.jpeg' width='200px'/></p> <p style='position: absolute; top: 40%;right: 45%'><img src='img/reward.jpeg' width='200px'/></p>","null","","","","","",""
"html-keyboard-response","191","212091","0.0-4.0-3.46","null","<p style=""font-size: 48px"">+</p>","null","","","","","",""
"html-button-response","192","213055","0.0-4.0-0.47","962.6849999986007","","","","1","2","1","0","0"
"html-keyboard-response","193","213558","0.0-4.0-1.47","null","<p style='position: absolute; top: 40%;right: 20%'><img src='img/s1.jpeg' width='200px'/></p> <p style='position: absolute; top: 40%;left: 20%'><img src='img/s2s.jpeg' width='200px'/></p>","null","","","","","",""
"html-keyboard-response","194","214561","0.0-4.0-2.47","null","<p style='position: absolute; top: 40%;right: 20%'><img src='img/s1.jpeg' width='200px'/></p> <p style='position: absolute; top: 40%;left: 20%'><img src='img/s2s.jpeg' width='200px'/></p> <p style='position: absolute; top: 40%;right: 45%'><img src='img/reward.jpeg' width='200px'/></p>","null","","","","","",""
"html-keyboard-response","195","215105","0.0-4.0-3.47","null","<p style=""font-size: 48px"">+</p>","null","","","","","",""
"html-button-response","196","216262","0.0-4.0-0.48","1155.6750000017928","","","","1","1","2","0","1"
"html-keyboard-response","197","216766","0.0-4.0-1.48","null","<p style='position: absolute; top: 40%;left: 20%'><img src='img/s1.jpeg' width='200px'/></p> <p style='position: absolute; top: 40%;right: 20%'><img src='img/s2s.jpeg' width='200px'/></p>","null","","","","","",""
"html-keyboard-response","198","217770","0.0-4.0-2.48","null","<p style='position: absolute; top: 40%;left: 20%'><img src='img/s1.jpeg' width='200px'/></p> <p style='position: absolute; top: 40%;right: 20%'><img src='img/s2s.jpeg' width='200px'/></p> <p style='position: absolute; top: 40%;right: 45%'><img src='img/reward.jpeg' width='200px'/></p>","null","","","","","",""
"html-keyboard-response","199","218380","0.0-4.0-3.48","null","<p style=""font-size: 48px"">+</p>","null","","","","","",""
"html-button-response","200","219413","0.0-4.0-0.49","1032.1750000002794","","","","1","2","1","0","1"
"html-keyboard-response","201","219918","0.0-4.0-1.49","null","<p style='position: absolute; top: 40%;right: 20%'><img src='img/s1.jpeg' width='200px'/></p> <p style='position: absolute; top: 40%;left: 20%'><img src='img/s2s.jpeg' width='200px'/></p>","null","","","","","",""
"html-keyboard-response","202","220922","0.0-4.0-2.49","null","<p style='position: absolute; top: 40%;right: 20%'><img src='img/s1.jpeg' width='200px'/></p> <p style='position: absolute; top: 40%;left: 20%'><img src='img/s2s.jpeg' width='200px'/></p> <p style='position: absolute; top: 40%;right: 45%'><img src='img/punishment.jpeg' width='200px'/></p>","null","","","","","",""
"html-keyboard-response","203","222414","0.0-4.0-3.49","null","<p style=""font-size: 48px"">+</p>","null","","","","","",""
"html-button-response","204","223049","0.0-4.0-0.50","634.0649999983725","","","","1","2","1","1","1"
"html-keyboard-response","205","223550","0.0-4.0-1.50","null","<p style='position: absolute; top: 40%;right: 20%'><img src='img/s1.jpeg' width='200px'/></p> <p style='position: absolute; top: 40%;left: 20%'><img src='img/s2s.jpeg' width='200px'/></p>","null","","","","","",""
"html-keyboard-response","206","224555","0.0-4.0-2.50","null","<p style='position: absolute; top: 40%;right: 20%'><img src='img/s1.jpeg' width='200px'/></p> <p style='position: absolute; top: 40%;left: 20%'><img src='img/s2s.jpeg' width='200px'/></p> <p style='position: absolute; top: 40%;right: 45%'><img src='img/punishment.jpeg' width='200px'/></p>","null","","","","","",""
"html-keyboard-response","207","225769","0.0-4.0-3.50","null","<p style=""font-size: 48px"">+</p>","null","","","","","",""
"html-button-response","208","227367","0.0-4.0-0.51","1596.9550000008894","","","","1","1","2","0","1"
"html-keyboard-response","209","227869","0.0-4.0-1.51","null","<p style='position: absolute; top: 40%;left: 20%'><img src='img/s1.jpeg' width='200px'/></p> <p style='position: absolute; top: 40%;right: 20%'><img src='img/s2s.jpeg' width='200px'/></p>","null","","","","","",""
"html-keyboard-response","210","228874","0.0-4.0-2.51","null","<p style='position: absolute; top: 40%;left: 20%'><img src='img/s1.jpeg' width='200px'/></p> <p style='position: absolute; top: 40%;right: 20%'><img src='img/s2s.jpeg' width='200px'/></p> <p style='position: absolute; top: 40%;right: 45%'><img src='img/reward.jpeg' width='200px'/></p>","null","","","","","",""
"html-keyboard-response","211","229484","0.0-4.0-3.51","null","<p style=""font-size: 48px"">+</p>","null","","","","","",""
"html-button-response","212","230411","0.0-4.0-0.52","926.1400000032154","","","","1","2","1","0","1"
"html-keyboard-response","213","230917","0.0-4.0-1.52","null","<p style='position: absolute; top: 40%;right: 20%'><img src='img/s1.jpeg' width='200px'/></p> <p style='position: absolute; top: 40%;left: 20%'><img src='img/s2s.jpeg' width='200px'/></p>","null","","","","","",""
"html-keyboard-response","214","231922","0.0-4.0-2.52","null","<p style='position: absolute; top: 40%;right: 20%'><img src='img/s1.jpeg' width='200px'/></p> <p style='position: absolute; top: 40%;left: 20%'><img src='img/s2s.jpeg' width='200px'/></p> <p style='position: absolute; top: 40%;right: 45%'><img src='img/punishment.jpeg' width='200px'/></p>","null","","","","","",""
"html-keyboard-response","215","233295","0.0-4.0-3.52","null","<p style=""font-size: 48px"">+</p>","null","","","","","",""
"html-button-response","216","234533","0.0-4.0-0.53","1236.9849999959115","","","","1","2","1","0","1"
"html-keyboard-response","217","235038","0.0-4.0-1.53","null","<p style='position: absolute; top: 40%;right: 20%'><img src='img/s1.jpeg' width='200px'/></p> <p style='position: absolute; top: 40%;left: 20%'><img src='img/s2s.jpeg' width='200px'/></p>","null","","","","","",""
"html-keyboard-response","218","236043","0.0-4.0-2.53","null","<p style='position: absolute; top: 40%;right: 20%'><img src='img/s1.jpeg' width='200px'/></p> <p style='position: absolute; top: 40%;left: 20%'><img src='img/s2s.jpeg' width='200px'/></p> <p style='position: absolute; top: 40%;right: 45%'><img src='img/punishment.jpeg' width='200px'/></p>","null","","","","","",""
"html-keyboard-response","219","237232","0.0-4.0-3.53","null","<p style=""font-size: 48px"">+</p>","null","","","","","",""
"html-button-response","220","237775","0.0-4.0-0.54","541.8200000058278","","","","1","2","1","0","0"
"html-keyboard-response","221","238278","0.0-4.0-1.54","null","<p style='position: absolute; top: 40%;right: 20%'><img src='img/s1.jpeg' width='200px'/></p> <p style='position: absolute; top: 40%;left: 20%'><img src='img/s2s.jpeg' width='200px'/></p>","null","","","","","",""
"html-keyboard-response","222","239283","0.0-4.0-2.54","null","<p style='position: absolute; top: 40%;right: 20%'><img src='img/s1.jpeg' width='200px'/></p> <p style='position: absolute; top: 40%;left: 20%'><img src='img/s2s.jpeg' width='200px'/></p> <p style='position: absolute; top: 40%;right: 45%'><img src='img/reward.jpeg' width='200px'/></p>","null","","","","","",""
"html-keyboard-response","223","240088","0.0-4.0-3.54","null","<p style=""font-size: 48px"">+</p>","null","","","","","",""
"html-button-response","224","241645","0.0-4.0-0.55","1555.8949999976903","","","","1","1","2","0","1"
"html-keyboard-response","225","242149","0.0-4.0-1.55","null","<p style='position: absolute; top: 40%;left: 20%'><img src='img/s1.jpeg' width='200px'/></p> <p style='position: absolute; top: 40%;right: 20%'><img src='img/s2s.jpeg' width='200px'/></p>","null","","","","","",""
"html-keyboard-response","226","243153","0.0-4.0-2.55","null","<p style='position: absolute; top: 40%;left: 20%'><img src='img/s1.jpeg' width='200px'/></p> <p style='position: absolute; top: 40%;right: 20%'><img src='img/s2s.jpeg' width='200px'/></p> <p style='position: absolute; top: 40%;right: 45%'><img src='img/reward.jpeg' width='200px'/></p>","null","","","","","",""
"html-keyboard-response","227","244285","0.0-4.0-3.55","null","<p style=""font-size: 48px"">+</p>","null","","","","","",""
"html-button-response","228","245341","0.0-4.0-0.56","1054.8299999936717","","","","1","2","1","1","0"
"html-keyboard-response","229","245847","0.0-4.0-1.56","null","<p style='position: absolute; top: 40%;right: 20%'><img src='img/s1.jpeg' width='200px'/></p> <p style='position: absolute; top: 40%;left: 20%'><img src='img/s2s.jpeg' width='200px'/></p>","null","","","","","",""
"html-keyboard-response","230","246852","0.0-4.0-2.56","null","<p style='position: absolute; top: 40%;right: 20%'><img src='img/s1.jpeg' width='200px'/></p> <p style='position: absolute; top: 40%;left: 20%'><img src='img/s2s.jpeg' width='200px'/></p> <p style='position: absolute; top: 40%;right: 45%'><img src='img/reward.jpeg' width='200px'/></p>","null","","","","","",""
"html-keyboard-response","231","247461","0.0-4.0-3.56","null","<p style=""font-size: 48px"">+</p>","null","","","","","",""
"html-button-response","232","248619","0.0-4.0-0.57","1157.0400000055088","","","","1","1","2","0","1"
"html-keyboard-response","233","249123","0.0-4.0-1.57","null","<p style='position: absolute; top: 40%;left: 20%'><img src='img/s1.jpeg' width='200px'/></p> <p style='position: absolute; top: 40%;right: 20%'><img src='img/s2s.jpeg' width='200px'/></p>","null","","","","","",""
"html-keyboard-response","234","250126","0.0-4.0-2.57","null","<p style='position: absolute; top: 40%;left: 20%'><img src='img/s1.jpeg' width='200px'/></p> <p style='position: absolute; top: 40%;right: 20%'><img src='img/s2s.jpeg' width='200px'/></p> <p style='position: absolute; top: 40%;right: 45%'><img src='img/reward.jpeg' width='200px'/></p>","null","","","","","",""
"html-keyboard-response","235","250839","0.0-4.0-3.57","null","<p style=""font-size: 48px"">+</p>","null","","","","","",""
"html-button-response","236","251329","0.0-4.0-0.58","489.64999999589054","","","","1","1","2","0","1"
"html-keyboard-response","237","251832","0.0-4.0-1.58","null","<p style='position: absolute; top: 40%;left: 20%'><img src='img/s1.jpeg' width='200px'/></p> <p style='position: absolute; top: 40%;right: 20%'><img src='img/s2s.jpeg' width='200px'/></p>","null","","","","","",""
"html-keyboard-response","238","252836","0.0-4.0-2.58","null","<p style='position: absolute; top: 40%;left: 20%'><img src='img/s1.jpeg' width='200px'/></p> <p style='position: absolute; top: 40%;right: 20%'><img src='img/s2s.jpeg' width='200px'/></p> <p style='position: absolute; top: 40%;right: 45%'><img src='img/reward.jpeg' width='200px'/></p>","null","","","","","",""
"html-keyboard-response","239","254221","0.0-4.0-3.58","null","<p style=""font-size: 48px"">+</p>","null","","","","","",""
"html-button-response","240","255053","0.0-4.0-0.59","830.6500000035157","","","","1","1","2","0","1"
"html-keyboard-response","241","255559","0.0-4.0-1.59","null","<p style='position: absolute; top: 40%;left: 20%'><img src='img/s1.jpeg' width='200px'/></p> <p style='position: absolute; top: 40%;right: 20%'><img src='img/s2s.jpeg' width='200px'/></p>","null","","","","","",""
"html-keyboard-response","242","256563","0.0-4.0-2.59","null","<p style='position: absolute; top: 40%;left: 20%'><img src='img/s1.jpeg' width='200px'/></p> <p style='position: absolute; top: 40%;right: 20%'><img src='img/s2s.jpeg' width='200px'/></p> <p style='position: absolute; top: 40%;right: 45%'><img src='img/reward.jpeg' width='200px'/></p>","null","","","","","",""
"html-keyboard-response","243","257542","0.0-4.0-3.59","null","<p style=""font-size: 48px"">+</p>","null","","","","","",""
"html-button-response","244","258577","0.0-4.0-0.60","1033.9250000033644","","","","1","2","1","0","0"
"html-keyboard-response","245","259081","0.0-4.0-1.60","null","<p style='position: absolute; top: 40%;right: 20%'><img src='img/s1.jpeg' width='200px'/></p> <p style='position: absolute; top: 40%;left: 20%'><img src='img/s2s.jpeg' width='200px'/></p>","null","","","","","",""
"html-keyboard-response","246","260086","0.0-4.0-2.60","null","<p style='position: absolute; top: 40%;right: 20%'><img src='img/s1.jpeg' width='200px'/></p> <p style='position: absolute; top: 40%;left: 20%'><img src='img/s2s.jpeg' width='200px'/></p> <p style='position: absolute; top: 40%;right: 45%'><img src='img/reward.jpeg' width='200px'/></p>","null","","","","","",""
"html-keyboard-response","247","261045","0.0-4.0-3.60","null","<p style=""font-size: 48px"">+</p>","null","","","","","",""
"html-button-response","248","262091","0.0-4.0-0.61","1045.4899999967893","","","","1","2","1","0","1"
"html-keyboard-response","249","262596","0.0-4.0-1.61","null","<p style='position: absolute; top: 40%;right: 20%'><img src='img/s1.jpeg' width='200px'/></p> <p style='position: absolute; top: 40%;left: 20%'><img src='img/s2s.jpeg' width='200px'/></p>","null","","","","","",""
"html-keyboard-response","250","263600","0.0-4.0-2.61","null","<p style='position: absolute; top: 40%;right: 20%'><img src='img/s1.jpeg' width='200px'/></p> <p style='position: absolute; top: 40%;left: 20%'><img src='img/s2s.jpeg' width='200px'/></p> <p style='position: absolute; top: 40%;right: 45%'><img src='img/punishment.jpeg' width='200px'/></p>","null","","","","","",""
"html-keyboard-response","251","264478","0.0-4.0-3.61","null","<p style=""font-size: 48px"">+</p>","null","","","","","",""
"html-button-response","252","265031","0.0-4.0-0.62","552.4750000040513","","","","1","2","1","0","1"
"html-keyboard-response","253","265536","0.0-4.0-1.62","null","<p style='position: absolute; top: 40%;right: 20%'><img src='img/s1.jpeg' width='200px'/></p> <p style='position: absolute; top: 40%;left: 20%'><img src='img/s2s.jpeg' width='200px'/></p>","null","","","","","",""
"html-keyboard-response","254","266538","0.0-4.0-2.62","null","<p style='position: absolute; top: 40%;right: 20%'><img src='img/s1.jpeg' width='200px'/></p> <p style='position: absolute; top: 40%;left: 20%'><img src='img/s2s.jpeg' width='200px'/></p> <p style='position: absolute; top: 40%;right: 45%'><img src='img/punishment.jpeg' width='200px'/></p>","null","","","","","",""
"html-keyboard-response","255","267637","0.0-4.0-3.62","null","<p style=""font-size: 48px"">+</p>","null","","","","","",""
"html-button-response","256","268211","0.0-4.0-0.63","573.1599999999162","","","","1","2","1","0","1"
"html-keyboard-response","257","268717","0.0-4.0-1.63","null","<p style='position: absolute; top: 40%;right: 20%'><img src='img/s1.jpeg' width='200px'/></p> <p style='position: absolute; top: 40%;left: 20%'><img src='img/s2s.jpeg' width='200px'/></p>","null","","","","","",""
"html-keyboard-response","258","269722","0.0-4.0-2.63","null","<p style='position: absolute; top: 40%;right: 20%'><img src='img/s1.jpeg' width='200px'/></p> <p style='position: absolute; top: 40%;left: 20%'><img src='img/s2s.jpeg' width='200px'/></p> <p style='position: absolute; top: 40%;right: 45%'><img src='img/punishment.jpeg' width='200px'/></p>","null","","","","","",""
"html-keyboard-response","259","270703","0.0-4.0-3.63","null","<p style=""font-size: 48px"">+</p>","null","","","","","",""
"html-button-response","260","271457","0.0-4.0-0.64","753.790000002482","","","","1","2","1","0","0"
"html-keyboard-response","261","271963","0.0-4.0-1.64","null","<p style='position: absolute; top: 40%;right: 20%'><img src='img/s1.jpeg' width='200px'/></p> <p style='position: absolute; top: 40%;left: 20%'><img src='img/s2s.jpeg' width='200px'/></p>","null","","","","","",""
"html-keyboard-response","262","272966","0.0-4.0-2.64","null","<p style='position: absolute; top: 40%;right: 20%'><img src='img/s1.jpeg' width='200px'/></p> <p style='position: absolute; top: 40%;left: 20%'><img src='img/s2s.jpeg' width='200px'/></p> <p style='position: absolute; top: 40%;right: 45%'><img src='img/reward.jpeg' width='200px'/></p>","null","","","","","",""
"html-keyboard-response","263","273710","0.0-4.0-3.64","null","<p style=""font-size: 48px"">+</p>","null","","","","","",""
"html-button-response","264","274763","0.0-4.0-0.65","1052.2649999984424","","","","1","1","2","1","1"
"html-keyboard-response","265","275265","0.0-4.0-1.65","null","<p style='position: absolute; top: 40%;left: 20%'><img src='img/s1.jpeg' width='200px'/></p> <p style='position: absolute; top: 40%;right: 20%'><img src='img/s2s.jpeg' width='200px'/></p>","null","","","","","",""
"html-keyboard-response","266","276269","0.0-4.0-2.65","null","<p style='position: absolute; top: 40%;left: 20%'><img src='img/s1.jpeg' width='200px'/></p> <p style='position: absolute; top: 40%;right: 20%'><img src='img/s2s.jpeg' width='200px'/></p> <p style='position: absolute; top: 40%;right: 45%'><img src='img/reward.jpeg' width='200px'/></p>","null","","","","","",""
"html-keyboard-response","267","277546","0.0-4.0-3.65","null","<p style=""font-size: 48px"">+</p>","null","","","","","",""
"html-button-response","268","278407","0.0-4.0-0.66","860.5549999992945","","","","1","1","2","0","1"
"html-keyboard-response","269","278910","0.0-4.0-1.66","null","<p style='position: absolute; top: 40%;left: 20%'><img src='img/s1.jpeg' width='200px'/></p> <p style='position: absolute; top: 40%;right: 20%'><img src='img/s2s.jpeg' width='200px'/></p>","null","","","","","",""
"html-keyboard-response","270","279912","0.0-4.0-2.66","null","<p style='position: absolute; top: 40%;left: 20%'><img src='img/s1.jpeg' width='200px'/></p> <p style='position: absolute; top: 40%;right: 20%'><img src='img/s2s.jpeg' width='200px'/></p> <p style='position: absolute; top: 40%;right: 45%'><img src='img/reward.jpeg' width='200px'/></p>","null","","","","","",""
"html-keyboard-response","271","280473","0.0-4.0-3.66","null","<p style=""font-size: 48px"">+</p>","null","","","","","",""
"html-button-response","272","281387","0.0-4.0-0.67","913.9700000014273","","","","1","1","2","0","1"
"html-keyboard-response","273","281888","0.0-4.0-1.67","null","<p style='position: absolute; top: 40%;left: 20%'><img src='img/s1.jpeg' width='200px'/></p> <p style='position: absolute; top: 40%;right: 20%'><img src='img/s2s.jpeg' width='200px'/></p>","null","","","","","",""
"html-keyboard-response","274","282889","0.0-4.0-2.67","null","<p style='position: absolute; top: 40%;left: 20%'><img src='img/s1.jpeg' width='200px'/></p> <p style='position: absolute; top: 40%;right: 20%'><img src='img/s2s.jpeg' width='200px'/></p> <p style='position: absolute; top: 40%;right: 45%'><img src='img/reward.jpeg' width='200px'/></p>","null","","","","","",""
"html-keyboard-response","275","284303","0.0-4.0-3.67","null","<p style=""font-size: 48px"">+</p>","null","","","","","",""
"html-button-response","276","284717","0.0-4.0-0.68","413.27499999897555","","","","1","1","2","0","1"
"html-keyboard-response","277","285221","0.0-4.0-1.68","null","<p style='position: absolute; top: 40%;left: 20%'><img src='img/s1.jpeg' width='200px'/></p> <p style='position: absolute; top: 40%;right: 20%'><img src='img/s2s.jpeg' width='200px'/></p>","null","","","","","",""
"html-keyboard-response","278","286224","0.0-4.0-2.68","null","<p style='position: absolute; top: 40%;left: 20%'><img src='img/s1.jpeg' width='200px'/></p> <p style='position: absolute; top: 40%;right: 20%'><img src='img/s2s.jpeg' width='200px'/></p> <p style='position: absolute; top: 40%;right: 45%'><img src='img/reward.jpeg' width='200px'/></p>","null","","","","","",""
"html-keyboard-response","279","287316","0.0-4.0-3.68","null","<p style=""font-size: 48px"">+</p>","null","","","","","",""
"html-button-response","280","288007","0.0-4.0-0.69","690.7999999966705","","","","1","1","2","1","1"
"html-keyboard-response","281","288512","0.0-4.0-1.69","null","<p style='position: absolute; top: 40%;left: 20%'><img src='img/s1.jpeg' width='200px'/></p> <p style='position: absolute; top: 40%;right: 20%'><img src='img/s2s.jpeg' width='200px'/></p>","null","","","","","",""
"html-keyboard-response","282","289516","0.0-4.0-2.69","null","<p style='position: absolute; top: 40%;left: 20%'><img src='img/s1.jpeg' width='200px'/></p> <p style='position: absolute; top: 40%;right: 20%'><img src='img/s2s.jpeg' width='200px'/></p> <p style='position: absolute; top: 40%;right: 45%'><img src='img/reward.jpeg' width='200px'/></p>","null","","","","","",""
"html-keyboard-response","283","290096","0.0-4.0-3.69","null","<p style=""font-size: 48px"">+</p>","null","","","","","",""
"html-button-response","284","290663","0.0-4.0-0.70","566.3949999943725","","","","1","1","2","0","1"
"html-keyboard-response","285","291165","0.0-4.0-1.70","null","<p style='position: absolute; top: 40%;left: 20%'><img src='img/s1.jpeg' width='200px'/></p> <p style='position: absolute; top: 40%;right: 20%'><img src='img/s2s.jpeg' width='200px'/></p>","null","","","","","",""
"html-keyboard-response","286","292169","0.0-4.0-2.70","null","<p style='position: absolute; top: 40%;left: 20%'><img src='img/s1.jpeg' width='200px'/></p> <p style='position: absolute; top: 40%;right: 20%'><img src='img/s2s.jpeg' width='200px'/></p> <p style='position: absolute; top: 40%;right: 45%'><img src='img/reward.jpeg' width='200px'/></p>","null","","","","","",""
"html-keyboard-response","287","292697","0.0-4.0-3.70","null","<p style=""font-size: 48px"">+</p>","null","","","","","",""
"html-button-response","288","294051","0.0-4.0-0.71","1353.434999997262","","","","1","2","1","0","0"
"html-keyboard-response","289","294553","0.0-4.0-1.71","null","<p style='position: absolute; top: 40%;right: 20%'><img src='img/s1.jpeg' width='200px'/></p> <p style='position: absolute; top: 40%;left: 20%'><img src='img/s2s.jpeg' width='200px'/></p>","null","","","","","",""
"html-keyboard-response","290","295558","0.0-4.0-2.71","null","<p style='position: absolute; top: 40%;right: 20%'><img src='img/s1.jpeg' width='200px'/></p> <p style='position: absolute; top: 40%;left: 20%'><img src='img/s2s.jpeg' width='200px'/></p> <p style='position: absolute; top: 40%;right: 45%'><img src='img/reward.jpeg' width='200px'/></p>","null","","","","","",""
"html-keyboard-response","291","296424","0.0-4.0-3.71","null","<p style=""font-size: 48px"">+</p>","null","","","","","",""
"html-button-response","292","297365","0.0-4.0-0.72","940.4499999945983","","","","1","2","1","0","1"
"html-keyboard-response","293","297869","0.0-4.0-1.72","null","<p style='position: absolute; top: 40%;right: 20%'><img src='img/s1.jpeg' width='200px'/></p> <p style='position: absolute; top: 40%;left: 20%'><img src='img/s2s.jpeg' width='200px'/></p>","null","","","","","",""
"html-keyboard-response","294","298872","0.0-4.0-2.72","null","<p style='position: absolute; top: 40%;right: 20%'><img src='img/s1.jpeg' width='200px'/></p> <p style='position: absolute; top: 40%;left: 20%'><img src='img/s2s.jpeg' width='200px'/></p> <p style='position: absolute; top: 40%;right: 45%'><img src='img/punishment.jpeg' width='200px'/></p>","null","","","","","",""
"html-keyboard-response","295","299833","0.0-4.0-3.72","null","<p style=""font-size: 48px"">+</p>","null","","","","","",""
"html-button-response","296","300803","0.0-4.0-0.73","969.3350000015926","","","","1","1","2","0","1"
"html-keyboard-response","297","301308","0.0-4.0-1.73","null","<p style='position: absolute; top: 40%;left: 20%'><img src='img/s1.jpeg' width='200px'/></p> <p style='position: absolute; top: 40%;right: 20%'><img src='img/s2s.jpeg' width='200px'/></p>","null","","","","","",""
"html-keyboard-response","298","302309","0.0-4.0-2.73","null","<p style='position: absolute; top: 40%;left: 20%'><img src='img/s1.jpeg' width='200px'/></p> <p style='position: absolute; top: 40%;right: 20%'><img src='img/s2s.jpeg' width='200px'/></p> <p style='position: absolute; top: 40%;right: 45%'><img src='img/reward.jpeg' width='200px'/></p>","null","","","","","",""
"html-keyboard-response","299","303766","0.0-4.0-3.73","null","<p style=""font-size: 48px"">+</p>","null","","","","","",""
"html-button-response","300","304921","0.0-4.0-0.74","1154.5699999987846","","","","1","2","1","1","1"
"html-keyboard-response","301","305426","0.0-4.0-1.74","null","<p style='position: absolute; top: 40%;right: 20%'><img src='img/s1.jpeg' width='200px'/></p> <p style='position: absolute; top: 40%;left: 20%'><img src='img/s2s.jpeg' width='200px'/></p>","null","","","","","",""
"html-keyboard-response","302","306431","0.0-4.0-2.74","null","<p style='position: absolute; top: 40%;right: 20%'><img src='img/s1.jpeg' width='200px'/></p> <p style='position: absolute; top: 40%;left: 20%'><img src='img/s2s.jpeg' width='200px'/></p> <p style='position: absolute; top: 40%;right: 45%'><img src='img/punishment.jpeg' width='200px'/></p>","null","","","","","",""
"html-keyboard-response","303","307180","0.0-4.0-3.74","null","<p style=""font-size: 48px"">+</p>","null","","","","","",""
"html-button-response","304","308233","0.0-4.0-0.75","1052.879999995639","","","","1","1","2","0","1"
"html-keyboard-response","305","308739","0.0-4.0-1.75","null","<p style='position: absolute; top: 40%;left: 20%'><img src='img/s1.jpeg' width='200px'/></p> <p style='position: absolute; top: 40%;right: 20%'><img src='img/s2s.jpeg' width='200px'/></p>","null","","","","","",""
"html-keyboard-response","306","309745","0.0-4.0-2.75","null","<p style='position: absolute; top: 40%;left: 20%'><img src='img/s1.jpeg' width='200px'/></p> <p style='position: absolute; top: 40%;right: 20%'><img src='img/s2s.jpeg' width='200px'/></p> <p style='position: absolute; top: 40%;right: 45%'><img src='img/reward.jpeg' width='200px'/></p>","null","","","","","",""
"html-keyboard-response","307","310810","0.0-4.0-3.75","null","<p style=""font-size: 48px"">+</p>","null","","","","","",""
"html-button-response","308","311917","0.0-4.0-0.76","1106.7800000018906","","","","1","1","2","0","1"
"html-keyboard-response","309","312419","0.0-4.0-1.76","null","<p style='position: absolute; top: 40%;left: 20%'><img src='img/s1.jpeg' width='200px'/></p> <p style='position: absolute; top: 40%;right: 20%'><img src='img/s2s.jpeg' width='200px'/></p>","null","","","","","",""
"html-keyboard-response","310","313420","0.0-4.0-2.76","null","<p style='position: absolute; top: 40%;left: 20%'><img src='img/s1.jpeg' width='200px'/></p> <p style='position: absolute; top: 40%;right: 20%'><img src='img/s2s.jpeg' width='200px'/></p> <p style='position: absolute; top: 40%;right: 45%'><img src='img/reward.jpeg' width='200px'/></p>","null","","","","","",""
"html-keyboard-response","311","314403","0.0-4.0-3.76","null","<p style=""font-size: 48px"">+</p>","null","","","","","",""
"html-button-response","312","315585","0.0-4.0-0.77","1181.655000000319","","","","1","2","1","0","1"
"html-keyboard-response","313","316090","0.0-4.0-1.77","null","<p style='position: absolute; top: 40%;right: 20%'><img src='img/s1.jpeg' width='200px'/></p> <p style='position: absolute; top: 40%;left: 20%'><img src='img/s2s.jpeg' width='200px'/></p>","null","","","","","",""
"html-keyboard-response","314","317094","0.0-4.0-2.77","null","<p style='position: absolute; top: 40%;right: 20%'><img src='img/s1.jpeg' width='200px'/></p> <p style='position: absolute; top: 40%;left: 20%'><img src='img/s2s.jpeg' width='200px'/></p> <p style='position: absolute; top: 40%;right: 45%'><img src='img/punishment.jpeg' width='200px'/></p>","null","","","","","",""
"html-keyboard-response","315","317663","0.0-4.0-3.77","null","<p style=""font-size: 48px"">+</p>","null","","","","","",""
"html-button-response","316","318741","0.0-4.0-0.78","1077.8600000048755","","","","1","1","2","0","1"
"html-keyboard-response","317","319246","0.0-4.0-1.78","null","<p style='position: absolute; top: 40%;left: 20%'><img src='img/s1.jpeg' width='200px'/></p> <p style='position: absolute; top: 40%;right: 20%'><img src='img/s2s.jpeg' width='200px'/></p>","null","","","","","",""
"html-keyboard-response","318","320249","0.0-4.0-2.78","null","<p style='position: absolute; top: 40%;left: 20%'><img src='img/s1.jpeg' width='200px'/></p> <p style='position: absolute; top: 40%;right: 20%'><img src='img/s2s.jpeg' width='200px'/></p> <p style='position: absolute; top: 40%;right: 45%'><img src='img/reward.jpeg' width='200px'/></p>","null","","","","","",""
"html-keyboard-response","319","321252","0.0-4.0-3.78","null","<p style=""font-size: 48px"">+</p>","null","","","","","",""
"html-button-response","320","322258","0.0-4.0-0.79","1004.785000004631","","","","1","2","1","1","0"
"html-keyboard-response","321","322759","0.0-4.0-1.79","null","<p style='position: absolute; top: 40%;right: 20%'><img src='img/s1.jpeg' width='200px'/></p> <p style='position: absolute; top: 40%;left: 20%'><img src='img/s2s.jpeg' width='200px'/></p>","null","","","","","",""
"html-keyboard-response","322","323764","0.0-4.0-2.79","null","<p style='position: absolute; top: 40%;right: 20%'><img src='img/s1.jpeg' width='200px'/></p> <p style='position: absolute; top: 40%;left: 20%'><img src='img/s2s.jpeg' width='200px'/></p> <p style='position: absolute; top: 40%;right: 45%'><img src='img/reward.jpeg' width='200px'/></p>","null","","","","","",""
"html-keyboard-response","323","324715","0.0-4.0-3.79","null","<p style=""font-size: 48px"">+</p>","null","","","","","",""
"pavlovia","324","324722","0.0-5.0","","","","","","","","",""
