"trial_type","trial_index","time_elapsed","internal_node_id","rt","stimulus","key_press","success","button_pressed","left_right_s1","left_right_s2","reward_s1","reward_s2"
"pavlovia","0","4","0.0-0.0","","","","","","","","",""
"html-keyboard-response","1","3903","0.0-1.0","3897.7950000044075","<p><span style='font-size:20pt;'>実験にお越しいただき，ありがとうございます!!!</span></p><p>キーボードのキーをどれか押して，開始してください</p>","32","","","","","",""
"fullscreen","2","6284","0.0-2.0","","","","true","","","","",""
"html-keyboard-response","3","52233","0.0-3.0","45949.88999999623","<p style='text-align:left'>画面に２つの図形がでてきますので，どちらかの図形を選択してください。</p><p style='text-align'>あなたの選択に対して，ポジティブな反応（緑色の笑顔）かネガティブな反応（赤色の悲しい顔）が出ます。</p><p style='text-align:left'>一方の図形はポジティブな反応が出やすく，もう一方はそうではありません。</p><p style='text-align:left'>できるだけ，ポジティブな反応が得られるように，選択をしてください。</p><p style='text-align:left'>図形の選択はマウスを使って行ってください</p><p style='text-align:left'>なお，図形とそれに対する反応との関係は途中で変わることがあります。</p><p style='text-align:left'>また，図形の出る位置（左右）は頻繁に変わります。</p><p style='text-align:left'>準備ができましたら，キーボードのキーを押して始めてください。</p>","32","","","","","",""
"html-button-response","4","54060","0.0-4.0-0.0","823.8750000018626","","","","1","1","2","1","1"
"html-keyboard-response","5","54562","0.0-4.0-1.0","null","<p style='position: absolute; top: 40%;left: 20%'><img src='img/s1.jpeg' width='200px'/></p> <p style='position: absolute; top: 40%;right: 20%'><img src='img/s2s.jpeg' width='200px'/></p>","null","","","","","",""
"html-keyboard-response","6","55563","0.0-4.0-2.0","null","<p style='position: absolute; top: 40%;left: 20%'><img src='img/s1.jpeg' width='200px'/></p> <p style='position: absolute; top: 40%;right: 20%'><img src='img/s2s.jpeg' width='200px'/></p> <p style='position: absolute; top: 40%;right: 45%'><img src='img/reward.jpeg' width='200px'/></p>","null","","","","","",""
"html-keyboard-response","7","57062","0.0-4.0-3.0","null","<p style=""font-size: 48px"">+</p>","null","","","","","",""
"html-button-response","8","57528","0.0-4.0-0.1","464.9950000020908","","","","1","1","2","1","0"
"html-keyboard-response","9","58032","0.0-4.0-1.1","null","<p style='position: absolute; top: 40%;left: 20%'><img src='img/s1.jpeg' width='200px'/></p> <p style='position: absolute; top: 40%;right: 20%'><img src='img/s2s.jpeg' width='200px'/></p>","null","","","","","",""
"html-keyboard-response","10","59037","0.0-4.0-2.1","null","<p style='position: absolute; top: 40%;left: 20%'><img src='img/s1.jpeg' width='200px'/></p> <p style='position: absolute; top: 40%;right: 20%'><img src='img/s2s.jpeg' width='200px'/></p> <p style='position: absolute; top: 40%;right: 45%'><img src='img/punishment.jpeg' width='200px'/></p>","null","","","","","",""
"html-keyboard-response","11","59954","0.0-4.0-3.1","null","<p style=""font-size: 48px"">+</p>","null","","","","","",""
"html-button-response","12","61546","0.0-4.0-0.2","1590.490000002319","","","","1","2","1","1","1"
"html-keyboard-response","13","62047","0.0-4.0-1.2","null","<p style='position: absolute; top: 40%;right: 20%'><img src='img/s1.jpeg' width='200px'/></p> <p style='position: absolute; top: 40%;left: 20%'><img src='img/s2s.jpeg' width='200px'/></p>","null","","","","","",""
"html-keyboard-response","14","63048","0.0-4.0-2.2","null","<p style='position: absolute; top: 40%;right: 20%'><img src='img/s1.jpeg' width='200px'/></p> <p style='position: absolute; top: 40%;left: 20%'><img src='img/s2s.jpeg' width='200px'/></p> <p style='position: absolute; top: 40%;right: 45%'><img src='img/punishment.jpeg' width='200px'/></p>","null","","","","","",""
"html-keyboard-response","15","64093","0.0-4.0-3.2","null","<p style=""font-size: 48px"">+</p>","null","","","","","",""
"html-button-response","16","64758","0.0-4.0-0.3","664.3850000036764","","","","1","2","1","1","0"
"html-keyboard-response","17","65260","0.0-4.0-1.3","null","<p style='position: absolute; top: 40%;right: 20%'><img src='img/s1.jpeg' width='200px'/></p> <p style='position: absolute; top: 40%;left: 20%'><img src='img/s2s.jpeg' width='200px'/></p>","null","","","","","",""
"html-keyboard-response","18","66264","0.0-4.0-2.3","null","<p style='position: absolute; top: 40%;right: 20%'><img src='img/s1.jpeg' width='200px'/></p> <p style='position: absolute; top: 40%;left: 20%'><img src='img/s2s.jpeg' width='200px'/></p> <p style='position: absolute; top: 40%;right: 45%'><img src='img/reward.jpeg' width='200px'/></p>","null","","","","","",""
"html-keyboard-response","19","67352","0.0-4.0-3.3","null","<p style=""font-size: 48px"">+</p>","null","","","","","",""
"html-button-response","20","68198","0.0-4.0-0.4","845.0000000011642","","","","1","1","2","1","0"
"html-keyboard-response","21","68702","0.0-4.0-1.4","null","<p style='position: absolute; top: 40%;left: 20%'><img src='img/s1.jpeg' width='200px'/></p> <p style='position: absolute; top: 40%;right: 20%'><img src='img/s2s.jpeg' width='200px'/></p>","null","","","","","",""
"html-keyboard-response","22","69706","0.0-4.0-2.4","null","<p style='position: absolute; top: 40%;left: 20%'><img src='img/s1.jpeg' width='200px'/></p> <p style='position: absolute; top: 40%;right: 20%'><img src='img/s2s.jpeg' width='200px'/></p> <p style='position: absolute; top: 40%;right: 45%'><img src='img/punishment.jpeg' width='200px'/></p>","null","","","","","",""
"html-keyboard-response","23","70890","0.0-4.0-3.4","null","<p style=""font-size: 48px"">+</p>","null","","","","","",""
"html-button-response","24","71780","0.0-4.0-0.5","888.5299999965355","","","","1","2","1","1","0"
"html-keyboard-response","25","72282","0.0-4.0-1.5","null","<p style='position: absolute; top: 40%;right: 20%'><img src='img/s1.jpeg' width='200px'/></p> <p style='position: absolute; top: 40%;left: 20%'><img src='img/s2s.jpeg' width='200px'/></p>","null","","","","","",""
"html-keyboard-response","26","73283","0.0-4.0-2.5","null","<p style='position: absolute; top: 40%;right: 20%'><img src='img/s1.jpeg' width='200px'/></p> <p style='position: absolute; top: 40%;left: 20%'><img src='img/s2s.jpeg' width='200px'/></p> <p style='position: absolute; top: 40%;right: 45%'><img src='img/reward.jpeg' width='200px'/></p>","null","","","","","",""
"html-keyboard-response","27","74285","0.0-4.0-3.5","null","<p style=""font-size: 48px"">+</p>","null","","","","","",""
"html-button-response","28","75034","0.0-4.0-0.6","747.8199999968638","","","","1","1","2","1","0"
"html-keyboard-response","29","75539","0.0-4.0-1.6","null","<p style='position: absolute; top: 40%;left: 20%'><img src='img/s1.jpeg' width='200px'/></p> <p style='position: absolute; top: 40%;right: 20%'><img src='img/s2s.jpeg' width='200px'/></p>","null","","","","","",""
"html-keyboard-response","30","76544","0.0-4.0-2.6","null","<p style='position: absolute; top: 40%;left: 20%'><img src='img/s1.jpeg' width='200px'/></p> <p style='position: absolute; top: 40%;right: 20%'><img src='img/s2s.jpeg' width='200px'/></p> <p style='position: absolute; top: 40%;right: 45%'><img src='img/punishment.jpeg' width='200px'/></p>","null","","","","","",""
"html-keyboard-response","31","77872","0.0-4.0-3.6","null","<p style=""font-size: 48px"">+</p>","null","","","","","",""
"html-button-response","32","79156","0.0-4.0-0.7","1282.9249999995227","","","","1","2","1","1","0"
"html-keyboard-response","33","79661","0.0-4.0-1.7","null","<p style='position: absolute; top: 40%;right: 20%'><img src='img/s1.jpeg' width='200px'/></p> <p style='position: absolute; top: 40%;left: 20%'><img src='img/s2s.jpeg' width='200px'/></p>","null","","","","","",""
"html-keyboard-response","34","80667","0.0-4.0-2.7","null","<p style='position: absolute; top: 40%;right: 20%'><img src='img/s1.jpeg' width='200px'/></p> <p style='position: absolute; top: 40%;left: 20%'><img src='img/s2s.jpeg' width='200px'/></p> <p style='position: absolute; top: 40%;right: 45%'><img src='img/reward.jpeg' width='200px'/></p>","null","","","","","",""
"html-keyboard-response","35","81324","0.0-4.0-3.7","null","<p style=""font-size: 48px"">+</p>","null","","","","","",""
"html-button-response","36","82366","0.0-4.0-0.8","1040.8800000004703","","","","1","1","2","0","0"
"html-keyboard-response","37","82869","0.0-4.0-1.8","null","<p style='position: absolute; top: 40%;left: 20%'><img src='img/s1.jpeg' width='200px'/></p> <p style='position: absolute; top: 40%;right: 20%'><img src='img/s2s.jpeg' width='200px'/></p>","null","","","","","",""
"html-keyboard-response","38","83870","0.0-4.0-2.8","null","<p style='position: absolute; top: 40%;left: 20%'><img src='img/s1.jpeg' width='200px'/></p> <p style='position: absolute; top: 40%;right: 20%'><img src='img/s2s.jpeg' width='200px'/></p> <p style='position: absolute; top: 40%;right: 45%'><img src='img/punishment.jpeg' width='200px'/></p>","null","","","","","",""
"html-keyboard-response","39","84909","0.0-4.0-3.8","null","<p style=""font-size: 48px"">+</p>","null","","","","","",""
"html-button-response","40","86034","0.0-4.0-0.9","1124.6549999996205","","","","1","2","1","0","0"
"html-keyboard-response","41","86537","0.0-4.0-1.9","null","<p style='position: absolute; top: 40%;right: 20%'><img src='img/s1.jpeg' width='200px'/></p> <p style='position: absolute; top: 40%;left: 20%'><img src='img/s2s.jpeg' width='200px'/></p>","null","","","","","",""
"html-keyboard-response","42","87539","0.0-4.0-2.9","null","<p style='position: absolute; top: 40%;right: 20%'><img src='img/s1.jpeg' width='200px'/></p> <p style='position: absolute; top: 40%;left: 20%'><img src='img/s2s.jpeg' width='200px'/></p> <p style='position: absolute; top: 40%;right: 45%'><img src='img/reward.jpeg' width='200px'/></p>","null","","","","","",""
"html-keyboard-response","43","88504","0.0-4.0-3.9","null","<p style=""font-size: 48px"">+</p>","null","","","","","",""
"html-button-response","44","89042","0.0-4.0-0.10","536.5899999960675","","","","1","1","2","1","0"
"html-keyboard-response","45","89547","0.0-4.0-1.10","null","<p style='position: absolute; top: 40%;left: 20%'><img src='img/s1.jpeg' width='200px'/></p> <p style='position: absolute; top: 40%;right: 20%'><img src='img/s2s.jpeg' width='200px'/></p>","null","","","","","",""
"html-keyboard-response","46","90551","0.0-4.0-2.10","null","<p style='position: absolute; top: 40%;left: 20%'><img src='img/s1.jpeg' width='200px'/></p> <p style='position: absolute; top: 40%;right: 20%'><img src='img/s2s.jpeg' width='200px'/></p> <p style='position: absolute; top: 40%;right: 45%'><img src='img/punishment.jpeg' width='200px'/></p>","null","","","","","",""
"html-keyboard-response","47","92004","0.0-4.0-3.10","null","<p style=""font-size: 48px"">+</p>","null","","","","","",""
"html-button-response","48","92882","0.0-4.0-0.11","876.9150000007357","","","","1","1","2","1","1"
"html-keyboard-response","49","93384","0.0-4.0-1.11","null","<p style='position: absolute; top: 40%;left: 20%'><img src='img/s1.jpeg' width='200px'/></p> <p style='position: absolute; top: 40%;right: 20%'><img src='img/s2s.jpeg' width='200px'/></p>","null","","","","","",""
"html-keyboard-response","50","94387","0.0-4.0-2.11","null","<p style='position: absolute; top: 40%;left: 20%'><img src='img/s1.jpeg' width='200px'/></p> <p style='position: absolute; top: 40%;right: 20%'><img src='img/s2s.jpeg' width='200px'/></p> <p style='position: absolute; top: 40%;right: 45%'><img src='img/reward.jpeg' width='200px'/></p>","null","","","","","",""
"html-keyboard-response","51","94966","0.0-4.0-3.11","null","<p style=""font-size: 48px"">+</p>","null","","","","","",""
"html-button-response","52","95700","0.0-4.0-0.12","733.6600000053295","","","","1","1","2","1","0"
"html-keyboard-response","53","96204","0.0-4.0-1.12","null","<p style='position: absolute; top: 40%;left: 20%'><img src='img/s1.jpeg' width='200px'/></p> <p style='position: absolute; top: 40%;right: 20%'><img src='img/s2s.jpeg' width='200px'/></p>","null","","","","","",""
"html-keyboard-response","54","97209","0.0-4.0-2.12","null","<p style='position: absolute; top: 40%;left: 20%'><img src='img/s1.jpeg' width='200px'/></p> <p style='position: absolute; top: 40%;right: 20%'><img src='img/s2s.jpeg' width='200px'/></p> <p style='position: absolute; top: 40%;right: 45%'><img src='img/punishment.jpeg' width='200px'/></p>","null","","","","","",""
"html-keyboard-response","55","97736","0.0-4.0-3.12","null","<p style=""font-size: 48px"">+</p>","null","","","","","",""
"html-button-response","56","98954","0.0-4.0-0.13","1216.614999997546","","","","1","2","1","1","0"
"html-keyboard-response","57","99455","0.0-4.0-1.13","null","<p style='position: absolute; top: 40%;right: 20%'><img src='img/s1.jpeg' width='200px'/></p> <p style='position: absolute; top: 40%;left: 20%'><img src='img/s2s.jpeg' width='200px'/></p>","null","","","","","",""
"html-keyboard-response","58","100460","0.0-4.0-2.13","null","<p style='position: absolute; top: 40%;right: 20%'><img src='img/s1.jpeg' width='200px'/></p> <p style='position: absolute; top: 40%;left: 20%'><img src='img/s2s.jpeg' width='200px'/></p> <p style='position: absolute; top: 40%;right: 45%'><img src='img/reward.jpeg' width='200px'/></p>","null","","","","","",""
"html-keyboard-response","59","101836","0.0-4.0-3.13","null","<p style=""font-size: 48px"">+</p>","null","","","","","",""
"html-button-response","60","102996","0.0-4.0-0.14","1159.2000000018743","","","","1","2","1","1","1"
"html-keyboard-response","61","103501","0.0-4.0-1.14","null","<p style='position: absolute; top: 40%;right: 20%'><img src='img/s1.jpeg' width='200px'/></p> <p style='position: absolute; top: 40%;left: 20%'><img src='img/s2s.jpeg' width='200px'/></p>","null","","","","","",""
"html-keyboard-response","62","104505","0.0-4.0-2.14","null","<p style='position: absolute; top: 40%;right: 20%'><img src='img/s1.jpeg' width='200px'/></p> <p style='position: absolute; top: 40%;left: 20%'><img src='img/s2s.jpeg' width='200px'/></p> <p style='position: absolute; top: 40%;right: 45%'><img src='img/punishment.jpeg' width='200px'/></p>","null","","","","","",""
"html-keyboard-response","63","105352","0.0-4.0-3.14","null","<p style=""font-size: 48px"">+</p>","null","","","","","",""
"html-button-response","64","106460","0.0-4.0-0.15","1106.9250000000466","","","","1","2","1","0","0"
"html-keyboard-response","65","106963","0.0-4.0-1.15","null","<p style='position: absolute; top: 40%;right: 20%'><img src='img/s1.jpeg' width='200px'/></p> <p style='position: absolute; top: 40%;left: 20%'><img src='img/s2s.jpeg' width='200px'/></p>","null","","","","","",""
"html-keyboard-response","66","107967","0.0-4.0-2.15","null","<p style='position: absolute; top: 40%;right: 20%'><img src='img/s1.jpeg' width='200px'/></p> <p style='position: absolute; top: 40%;left: 20%'><img src='img/s2s.jpeg' width='200px'/></p> <p style='position: absolute; top: 40%;right: 45%'><img src='img/reward.jpeg' width='200px'/></p>","null","","","","","",""
"html-keyboard-response","67","108582","0.0-4.0-3.15","null","<p style=""font-size: 48px"">+</p>","null","","","","","",""
"html-button-response","68","109290","0.0-4.0-0.16","707.5299999996787","","","","1","1","2","1","0"
"html-keyboard-response","69","109797","0.0-4.0-1.16","null","<p style='position: absolute; top: 40%;left: 20%'><img src='img/s1.jpeg' width='200px'/></p> <p style='position: absolute; top: 40%;right: 20%'><img src='img/s2s.jpeg' width='200px'/></p>","null","","","","","",""
"html-keyboard-response","70","110798","0.0-4.0-2.16","null","<p style='position: absolute; top: 40%;left: 20%'><img src='img/s1.jpeg' width='200px'/></p> <p style='position: absolute; top: 40%;right: 20%'><img src='img/s2s.jpeg' width='200px'/></p> <p style='position: absolute; top: 40%;right: 45%'><img src='img/punishment.jpeg' width='200px'/></p>","null","","","","","",""
"html-keyboard-response","71","112090","0.0-4.0-3.16","null","<p style=""font-size: 48px"">+</p>","null","","","","","",""
"html-button-response","72","112632","0.0-4.0-0.17","541.350000006787","","","","1","1","2","1","0"
"html-keyboard-response","73","113137","0.0-4.0-1.17","null","<p style='position: absolute; top: 40%;left: 20%'><img src='img/s1.jpeg' width='200px'/></p> <p style='position: absolute; top: 40%;right: 20%'><img src='img/s2s.jpeg' width='200px'/></p>","null","","","","","",""
"html-keyboard-response","74","114140","0.0-4.0-2.17","null","<p style='position: absolute; top: 40%;left: 20%'><img src='img/s1.jpeg' width='200px'/></p> <p style='position: absolute; top: 40%;right: 20%'><img src='img/s2s.jpeg' width='200px'/></p> <p style='position: absolute; top: 40%;right: 45%'><img src='img/punishment.jpeg' width='200px'/></p>","null","","","","","",""
"html-keyboard-response","75","114688","0.0-4.0-3.17","null","<p style=""font-size: 48px"">+</p>","null","","","","","",""
"html-button-response","76","115350","0.0-4.0-0.18","660.8699999997043","","","","0","2","1","0","0"
"html-keyboard-response","77","115854","0.0-4.0-1.18","null","<p style='position: absolute; top: 40%;right: 20%'><img src='img/s1s.jpeg' width='200px'/></p> <p style='position: absolute; top: 40%;left: 20%'><img src='img/s2.jpeg' width='200px'/></p>","null","","","","","",""
"html-keyboard-response","78","116858","0.0-4.0-2.18","null","<p style='position: absolute; top: 40%;right: 20%'><img src='img/s1s.jpeg' width='200px'/></p> <p style='position: absolute; top: 40%;left: 20%'><img src='img/s2.jpeg' width='200px'/></p> <p style='position: absolute; top: 40%;right: 45%'><img src='img/punishment.jpeg' width='200px'/></p>","null","","","","","",""
"html-keyboard-response","79","118189","0.0-4.0-3.18","null","<p style=""font-size: 48px"">+</p>","null","","","","","",""
"html-button-response","80","119127","0.0-4.0-0.19","935.9800000020186","","","","0","2","1","1","0"
"html-keyboard-response","81","119632","0.0-4.0-1.19","null","<p style='position: absolute; top: 40%;right: 20%'><img src='img/s1s.jpeg' width='200px'/></p> <p style='position: absolute; top: 40%;left: 20%'><img src='img/s2.jpeg' width='200px'/></p>","null","","","","","",""
"html-keyboard-response","82","120635","0.0-4.0-2.19","null","<p style='position: absolute; top: 40%;right: 20%'><img src='img/s1s.jpeg' width='200px'/></p> <p style='position: absolute; top: 40%;left: 20%'><img src='img/s2.jpeg' width='200px'/></p> <p style='position: absolute; top: 40%;right: 45%'><img src='img/reward.jpeg' width='200px'/></p>","null","","","","","",""
"html-keyboard-response","83","121549","0.0-4.0-3.19","null","<p style=""font-size: 48px"">+</p>","null","","","","","",""
"html-button-response","84","122364","0.0-4.0-0.20","814.024999999674","","","","0","2","1","1","0"
"html-keyboard-response","85","122866","0.0-4.0-1.20","null","<p style='position: absolute; top: 40%;right: 20%'><img src='img/s1s.jpeg' width='200px'/></p> <p style='position: absolute; top: 40%;left: 20%'><img src='img/s2.jpeg' width='200px'/></p>","null","","","","","",""
"html-keyboard-response","86","123870","0.0-4.0-2.20","null","<p style='position: absolute; top: 40%;right: 20%'><img src='img/s1s.jpeg' width='200px'/></p> <p style='position: absolute; top: 40%;left: 20%'><img src='img/s2.jpeg' width='200px'/></p> <p style='position: absolute; top: 40%;right: 45%'><img src='img/reward.jpeg' width='200px'/></p>","null","","","","","",""
"html-keyboard-response","87","125158","0.0-4.0-3.20","null","<p style=""font-size: 48px"">+</p>","null","","","","","",""
"html-button-response","88","126296","0.0-4.0-0.21","1137.6450000025216","","","","0","1","2","0","0"
"html-keyboard-response","89","126801","0.0-4.0-1.21","null","<p style='position: absolute; top: 40%;left: 20%'><img src='img/s1s.jpeg' width='200px'/></p> <p style='position: absolute; top: 40%;right: 20%'><img src='img/s2.jpeg' width='200px'/></p>","null","","","","","",""
"html-keyboard-response","90","127805","0.0-4.0-2.21","null","<p style='position: absolute; top: 40%;left: 20%'><img src='img/s1s.jpeg' width='200px'/></p> <p style='position: absolute; top: 40%;right: 20%'><img src='img/s2.jpeg' width='200px'/></p> <p style='position: absolute; top: 40%;right: 45%'><img src='img/punishment.jpeg' width='200px'/></p>","null","","","","","",""
"html-keyboard-response","91","128984","0.0-4.0-3.21","null","<p style=""font-size: 48px"">+</p>","null","","","","","",""
"html-button-response","92","129984","0.0-4.0-0.22","999.2950000014389","","","","0","2","1","1","0"
"html-keyboard-response","93","130490","0.0-4.0-1.22","null","<p style='position: absolute; top: 40%;right: 20%'><img src='img/s1s.jpeg' width='200px'/></p> <p style='position: absolute; top: 40%;left: 20%'><img src='img/s2.jpeg' width='200px'/></p>","null","","","","","",""
"html-keyboard-response","94","131491","0.0-4.0-2.22","null","<p style='position: absolute; top: 40%;right: 20%'><img src='img/s1s.jpeg' width='200px'/></p> <p style='position: absolute; top: 40%;left: 20%'><img src='img/s2.jpeg' width='200px'/></p> <p style='position: absolute; top: 40%;right: 45%'><img src='img/reward.jpeg' width='200px'/></p>","null","","","","","",""
"html-keyboard-response","95","132913","0.0-4.0-3.22","null","<p style=""font-size: 48px"">+</p>","null","","","","","",""
"html-button-response","96","134080","0.0-4.0-0.23","1166.39999999461","","","","0","1","2","1","0"
"html-keyboard-response","97","134585","0.0-4.0-1.23","null","<p style='position: absolute; top: 40%;left: 20%'><img src='img/s1s.jpeg' width='200px'/></p> <p style='position: absolute; top: 40%;right: 20%'><img src='img/s2.jpeg' width='200px'/></p>","null","","","","","",""
"html-keyboard-response","98","135590","0.0-4.0-2.23","null","<p style='position: absolute; top: 40%;left: 20%'><img src='img/s1s.jpeg' width='200px'/></p> <p style='position: absolute; top: 40%;right: 20%'><img src='img/s2.jpeg' width='200px'/></p> <p style='position: absolute; top: 40%;right: 45%'><img src='img/reward.jpeg' width='200px'/></p>","null","","","","","",""
"html-keyboard-response","99","136123","0.0-4.0-3.23","null","<p style=""font-size: 48px"">+</p>","null","","","","","",""
"html-button-response","100","137010","0.0-4.0-0.24","885.8749999999418","","","","0","2","1","1","1"
"html-keyboard-response","101","137513","0.0-4.0-1.24","null","<p style='position: absolute; top: 40%;right: 20%'><img src='img/s1s.jpeg' width='200px'/></p> <p style='position: absolute; top: 40%;left: 20%'><img src='img/s2.jpeg' width='200px'/></p>","null","","","","","",""
"html-keyboard-response","102","138518","0.0-4.0-2.24","null","<p style='position: absolute; top: 40%;right: 20%'><img src='img/s1s.jpeg' width='200px'/></p> <p style='position: absolute; top: 40%;left: 20%'><img src='img/s2.jpeg' width='200px'/></p> <p style='position: absolute; top: 40%;right: 45%'><img src='img/reward.jpeg' width='200px'/></p>","null","","","","","",""
"html-keyboard-response","103","139151","0.0-4.0-3.24","null","<p style=""font-size: 48px"">+</p>","null","","","","","",""
"html-button-response","104","139748","0.0-4.0-0.25","596.64000000339","","","","0","2","1","1","0"
"html-keyboard-response","105","140251","0.0-4.0-1.25","null","<p style='position: absolute; top: 40%;right: 20%'><img src='img/s1s.jpeg' width='200px'/></p> <p style='position: absolute; top: 40%;left: 20%'><img src='img/s2.jpeg' width='200px'/></p>","null","","","","","",""
"html-keyboard-response","106","141254","0.0-4.0-2.25","null","<p style='position: absolute; top: 40%;right: 20%'><img src='img/s1s.jpeg' width='200px'/></p> <p style='position: absolute; top: 40%;left: 20%'><img src='img/s2.jpeg' width='200px'/></p> <p style='position: absolute; top: 40%;right: 45%'><img src='img/reward.jpeg' width='200px'/></p>","null","","","","","",""
"html-keyboard-response","107","142114","0.0-4.0-3.25","null","<p style=""font-size: 48px"">+</p>","null","","","","","",""
"html-button-response","108","143522","0.0-4.0-0.26","1407.3399999979301","","","","0","1","2","1","0"
"html-keyboard-response","109","144024","0.0-4.0-1.26","null","<p style='position: absolute; top: 40%;left: 20%'><img src='img/s1s.jpeg' width='200px'/></p> <p style='position: absolute; top: 40%;right: 20%'><img src='img/s2.jpeg' width='200px'/></p>","null","","","","","",""
"html-keyboard-response","110","145027","0.0-4.0-2.26","null","<p style='position: absolute; top: 40%;left: 20%'><img src='img/s1s.jpeg' width='200px'/></p> <p style='position: absolute; top: 40%;right: 20%'><img src='img/s2.jpeg' width='200px'/></p> <p style='position: absolute; top: 40%;right: 45%'><img src='img/reward.jpeg' width='200px'/></p>","null","","","","","",""
"html-keyboard-response","111","145712","0.0-4.0-3.26","null","<p style=""font-size: 48px"">+</p>","null","","","","","",""
"html-button-response","112","146484","0.0-4.0-0.27","770.7450000016252","","","","0","2","1","0","1"
"html-keyboard-response","113","146988","0.0-4.0-1.27","null","<p style='position: absolute; top: 40%;right: 20%'><img src='img/s1s.jpeg' width='200px'/></p> <p style='position: absolute; top: 40%;left: 20%'><img src='img/s2.jpeg' width='200px'/></p>","null","","","","","",""
"html-keyboard-response","114","147989","0.0-4.0-2.27","null","<p style='position: absolute; top: 40%;right: 20%'><img src='img/s1s.jpeg' width='200px'/></p> <p style='position: absolute; top: 40%;left: 20%'><img src='img/s2.jpeg' width='200px'/></p> <p style='position: absolute; top: 40%;right: 45%'><img src='img/punishment.jpeg' width='200px'/></p>","null","","","","","",""
"html-keyboard-response","115","149085","0.0-4.0-3.27","null","<p style=""font-size: 48px"">+</p>","null","","","","","",""
"html-button-response","116","150140","0.0-4.0-0.28","1054.5649999985471","","","","0","1","2","1","0"
"html-keyboard-response","117","150641","0.0-4.0-1.28","null","<p style='position: absolute; top: 40%;left: 20%'><img src='img/s1s.jpeg' width='200px'/></p> <p style='position: absolute; top: 40%;right: 20%'><img src='img/s2.jpeg' width='200px'/></p>","null","","","","","",""
"html-keyboard-response","118","151645","0.0-4.0-2.28","null","<p style='position: absolute; top: 40%;left: 20%'><img src='img/s1s.jpeg' width='200px'/></p> <p style='position: absolute; top: 40%;right: 20%'><img src='img/s2.jpeg' width='200px'/></p> <p style='position: absolute; top: 40%;right: 45%'><img src='img/reward.jpeg' width='200px'/></p>","null","","","","","",""
"html-keyboard-response","119","152167","0.0-4.0-3.28","null","<p style=""font-size: 48px"">+</p>","null","","","","","",""
"html-button-response","120","153224","0.0-4.0-0.29","1055.7799999951385","","","","0","1","2","1","0"
"html-keyboard-response","121","153725","0.0-4.0-1.29","null","<p style='position: absolute; top: 40%;left: 20%'><img src='img/s1s.jpeg' width='200px'/></p> <p style='position: absolute; top: 40%;right: 20%'><img src='img/s2.jpeg' width='200px'/></p>","null","","","","","",""
"html-keyboard-response","122","154729","0.0-4.0-2.29","null","<p style='position: absolute; top: 40%;left: 20%'><img src='img/s1s.jpeg' width='200px'/></p> <p style='position: absolute; top: 40%;right: 20%'><img src='img/s2.jpeg' width='200px'/></p> <p style='position: absolute; top: 40%;right: 45%'><img src='img/reward.jpeg' width='200px'/></p>","null","","","","","",""
"html-keyboard-response","123","155780","0.0-4.0-3.29","null","<p style=""font-size: 48px"">+</p>","null","","","","","",""
"html-button-response","124","157238","0.0-4.0-0.30","1457.830000006652","","","","0","2","1","1","0"
"html-keyboard-response","125","157743","0.0-4.0-1.30","null","<p style='position: absolute; top: 40%;right: 20%'><img src='img/s1s.jpeg' width='200px'/></p> <p style='position: absolute; top: 40%;left: 20%'><img src='img/s2.jpeg' width='200px'/></p>","null","","","","","",""
"html-keyboard-response","126","158746","0.0-4.0-2.30","null","<p style='position: absolute; top: 40%;right: 20%'><img src='img/s1s.jpeg' width='200px'/></p> <p style='position: absolute; top: 40%;left: 20%'><img src='img/s2.jpeg' width='200px'/></p> <p style='position: absolute; top: 40%;right: 45%'><img src='img/reward.jpeg' width='200px'/></p>","null","","","","","",""
"html-keyboard-response","127","160193","0.0-4.0-3.30","null","<p style=""font-size: 48px"">+</p>","null","","","","","",""
"html-button-response","128","160806","0.0-4.0-0.31","611.9850000031875","","","","0","2","1","1","0"
"html-keyboard-response","129","161307","0.0-4.0-1.31","null","<p style='position: absolute; top: 40%;right: 20%'><img src='img/s1s.jpeg' width='200px'/></p> <p style='position: absolute; top: 40%;left: 20%'><img src='img/s2.jpeg' width='200px'/></p>","null","","","","","",""
"html-keyboard-response","130","162311","0.0-4.0-2.31","null","<p style='position: absolute; top: 40%;right: 20%'><img src='img/s1s.jpeg' width='200px'/></p> <p style='position: absolute; top: 40%;left: 20%'><img src='img/s2.jpeg' width='200px'/></p> <p style='position: absolute; top: 40%;right: 45%'><img src='img/reward.jpeg' width='200px'/></p>","null","","","","","",""
"html-keyboard-response","131","163607","0.0-4.0-3.31","null","<p style=""font-size: 48px"">+</p>","null","","","","","",""
"html-button-response","132","164268","0.0-4.0-0.32","660.554999994929","","","","0","1","2","0","0"
"html-keyboard-response","133","164769","0.0-4.0-1.32","null","<p style='position: absolute; top: 40%;left: 20%'><img src='img/s1s.jpeg' width='200px'/></p> <p style='position: absolute; top: 40%;right: 20%'><img src='img/s2.jpeg' width='200px'/></p>","null","","","","","",""
"html-keyboard-response","134","165774","0.0-4.0-2.32","null","<p style='position: absolute; top: 40%;left: 20%'><img src='img/s1s.jpeg' width='200px'/></p> <p style='position: absolute; top: 40%;right: 20%'><img src='img/s2.jpeg' width='200px'/></p> <p style='position: absolute; top: 40%;right: 45%'><img src='img/punishment.jpeg' width='200px'/></p>","null","","","","","",""
"html-keyboard-response","135","167015","0.0-4.0-3.32","null","<p style=""font-size: 48px"">+</p>","null","","","","","",""
"html-button-response","136","167936","0.0-4.0-0.33","920.2950000035344","","","","0","2","1","1","0"
"html-keyboard-response","137","168438","0.0-4.0-1.33","null","<p style='position: absolute; top: 40%;right: 20%'><img src='img/s1s.jpeg' width='200px'/></p> <p style='position: absolute; top: 40%;left: 20%'><img src='img/s2.jpeg' width='200px'/></p>","null","","","","","",""
"html-keyboard-response","138","169443","0.0-4.0-2.33","null","<p style='position: absolute; top: 40%;right: 20%'><img src='img/s1s.jpeg' width='200px'/></p> <p style='position: absolute; top: 40%;left: 20%'><img src='img/s2.jpeg' width='200px'/></p> <p style='position: absolute; top: 40%;right: 45%'><img src='img/reward.jpeg' width='200px'/></p>","null","","","","","",""
"html-keyboard-response","139","170867","0.0-4.0-3.33","null","<p style=""font-size: 48px"">+</p>","null","","","","","",""
"html-button-response","140","171680","0.0-4.0-0.34","812.2250000014901","","","","0","1","2","1","1"
"html-keyboard-response","141","172182","0.0-4.0-1.34","null","<p style='position: absolute; top: 40%;left: 20%'><img src='img/s1s.jpeg' width='200px'/></p> <p style='position: absolute; top: 40%;right: 20%'><img src='img/s2.jpeg' width='200px'/></p>","null","","","","","",""
"html-keyboard-response","142","173185","0.0-4.0-2.34","null","<p style='position: absolute; top: 40%;left: 20%'><img src='img/s1s.jpeg' width='200px'/></p> <p style='position: absolute; top: 40%;right: 20%'><img src='img/s2.jpeg' width='200px'/></p> <p style='position: absolute; top: 40%;right: 45%'><img src='img/reward.jpeg' width='200px'/></p>","null","","","","","",""
"html-keyboard-response","143","174272","0.0-4.0-3.34","null","<p style=""font-size: 48px"">+</p>","null","","","","","",""
"html-button-response","144","175324","0.0-4.0-0.35","1051.064999999653","","","","0","2","1","1","0"
"html-keyboard-response","145","175828","0.0-4.0-1.35","null","<p style='position: absolute; top: 40%;right: 20%'><img src='img/s1s.jpeg' width='200px'/></p> <p style='position: absolute; top: 40%;left: 20%'><img src='img/s2.jpeg' width='200px'/></p>","null","","","","","",""
"html-keyboard-response","146","176832","0.0-4.0-2.35","null","<p style='position: absolute; top: 40%;right: 20%'><img src='img/s1s.jpeg' width='200px'/></p> <p style='position: absolute; top: 40%;left: 20%'><img src='img/s2.jpeg' width='200px'/></p> <p style='position: absolute; top: 40%;right: 45%'><img src='img/reward.jpeg' width='200px'/></p>","null","","","","","",""
"html-keyboard-response","147","177669","0.0-4.0-3.35","null","<p style=""font-size: 48px"">+</p>","null","","","","","",""
"html-button-response","148","178140","0.0-4.0-0.36","470.6900000019232","","","","0","2","1","0","1"
"html-keyboard-response","149","178643","0.0-4.0-1.36","null","<p style='position: absolute; top: 40%;right: 20%'><img src='img/s1s.jpeg' width='200px'/></p> <p style='position: absolute; top: 40%;left: 20%'><img src='img/s2.jpeg' width='200px'/></p>","null","","","","","",""
"html-keyboard-response","150","179644","0.0-4.0-2.36","null","<p style='position: absolute; top: 40%;right: 20%'><img src='img/s1s.jpeg' width='200px'/></p> <p style='position: absolute; top: 40%;left: 20%'><img src='img/s2.jpeg' width='200px'/></p> <p style='position: absolute; top: 40%;right: 45%'><img src='img/punishment.jpeg' width='200px'/></p>","null","","","","","",""
"html-keyboard-response","151","180999","0.0-4.0-3.36","null","<p style=""font-size: 48px"">+</p>","null","","","","","",""
"html-button-response","152","181996","0.0-4.0-0.37","996.6449999992619","","","","0","1","2","1","0"
"html-keyboard-response","153","182497","0.0-4.0-1.37","null","<p style='position: absolute; top: 40%;left: 20%'><img src='img/s1s.jpeg' width='200px'/></p> <p style='position: absolute; top: 40%;right: 20%'><img src='img/s2.jpeg' width='200px'/></p>","null","","","","","",""
"html-keyboard-response","154","183502","0.0-4.0-2.37","null","<p style='position: absolute; top: 40%;left: 20%'><img src='img/s1s.jpeg' width='200px'/></p> <p style='position: absolute; top: 40%;right: 20%'><img src='img/s2.jpeg' width='200px'/></p> <p style='position: absolute; top: 40%;right: 45%'><img src='img/reward.jpeg' width='200px'/></p>","null","","","","","",""
"html-keyboard-response","155","184116","0.0-4.0-3.37","null","<p style=""font-size: 48px"">+</p>","null","","","","","",""
"html-button-response","156","185160","0.0-4.0-0.38","1043.1549999993877","","","","0","1","2","1","0"
"html-keyboard-response","157","185666","0.0-4.0-1.38","null","<p style='position: absolute; top: 40%;left: 20%'><img src='img/s1s.jpeg' width='200px'/></p> <p style='position: absolute; top: 40%;right: 20%'><img src='img/s2.jpeg' width='200px'/></p>","null","","","","","",""
"html-keyboard-response","158","186669","0.0-4.0-2.38","null","<p style='position: absolute; top: 40%;left: 20%'><img src='img/s1s.jpeg' width='200px'/></p> <p style='position: absolute; top: 40%;right: 20%'><img src='img/s2.jpeg' width='200px'/></p> <p style='position: absolute; top: 40%;right: 45%'><img src='img/reward.jpeg' width='200px'/></p>","null","","","","","",""
"html-keyboard-response","159","187835","0.0-4.0-3.38","null","<p style=""font-size: 48px"">+</p>","null","","","","","",""
"html-button-response","160","188934","0.0-4.0-0.39","1098.31000000122","","","","0","1","2","1","0"
"html-keyboard-response","161","189438","0.0-4.0-1.39","null","<p style='position: absolute; top: 40%;left: 20%'><img src='img/s1s.jpeg' width='200px'/></p> <p style='position: absolute; top: 40%;right: 20%'><img src='img/s2.jpeg' width='200px'/></p>","null","","","","","",""
"html-keyboard-response","162","190444","0.0-4.0-2.39","null","<p style='position: absolute; top: 40%;left: 20%'><img src='img/s1s.jpeg' width='200px'/></p> <p style='position: absolute; top: 40%;right: 20%'><img src='img/s2.jpeg' width='200px'/></p> <p style='position: absolute; top: 40%;right: 45%'><img src='img/reward.jpeg' width='200px'/></p>","null","","","","","",""
"html-keyboard-response","163","191883","0.0-4.0-3.39","null","<p style=""font-size: 48px"">+</p>","null","","","","","",""
"html-button-response","164","192500","0.0-4.0-0.40","616.5550000005169","","","","0","2","1","1","1"
"html-keyboard-response","165","193003","0.0-4.0-1.40","null","<p style='position: absolute; top: 40%;right: 20%'><img src='img/s1s.jpeg' width='200px'/></p> <p style='position: absolute; top: 40%;left: 20%'><img src='img/s2.jpeg' width='200px'/></p>","null","","","","","",""
"html-keyboard-response","166","194008","0.0-4.0-2.40","null","<p style='position: absolute; top: 40%;right: 20%'><img src='img/s1s.jpeg' width='200px'/></p> <p style='position: absolute; top: 40%;left: 20%'><img src='img/s2.jpeg' width='200px'/></p> <p style='position: absolute; top: 40%;right: 45%'><img src='img/reward.jpeg' width='200px'/></p>","null","","","","","",""
"html-keyboard-response","167","195332","0.0-4.0-3.40","null","<p style=""font-size: 48px"">+</p>","null","","","","","",""
"html-button-response","168","196512","0.0-4.0-0.41","1179.985000002489","","","","0","1","2","0","1"
"html-keyboard-response","169","197015","0.0-4.0-1.41","null","<p style='position: absolute; top: 40%;left: 20%'><img src='img/s1s.jpeg' width='200px'/></p> <p style='position: absolute; top: 40%;right: 20%'><img src='img/s2.jpeg' width='200px'/></p>","null","","","","","",""
"html-keyboard-response","170","198020","0.0-4.0-2.41","null","<p style='position: absolute; top: 40%;left: 20%'><img src='img/s1s.jpeg' width='200px'/></p> <p style='position: absolute; top: 40%;right: 20%'><img src='img/s2.jpeg' width='200px'/></p> <p style='position: absolute; top: 40%;right: 45%'><img src='img/punishment.jpeg' width='200px'/></p>","null","","","","","",""
"html-keyboard-response","171","198975","0.0-4.0-3.41","null","<p style=""font-size: 48px"">+</p>","null","","","","","",""
"html-button-response","172","199926","0.0-4.0-0.42","950.23499999661","","","","0","1","2","0","1"
"html-keyboard-response","173","200427","0.0-4.0-1.42","null","<p style='position: absolute; top: 40%;left: 20%'><img src='img/s1s.jpeg' width='200px'/></p> <p style='position: absolute; top: 40%;right: 20%'><img src='img/s2.jpeg' width='200px'/></p>","null","","","","","",""
"html-keyboard-response","174","201432","0.0-4.0-2.42","null","<p style='position: absolute; top: 40%;left: 20%'><img src='img/s1s.jpeg' width='200px'/></p> <p style='position: absolute; top: 40%;right: 20%'><img src='img/s2.jpeg' width='200px'/></p> <p style='position: absolute; top: 40%;right: 45%'><img src='img/punishment.jpeg' width='200px'/></p>","null","","","","","",""
"html-keyboard-response","175","202140","0.0-4.0-3.42","null","<p style=""font-size: 48px"">+</p>","null","","","","","",""
"html-button-response","176","202896","0.0-4.0-0.43","754.9350000044797","","","","1","1","2","0","1"
"html-keyboard-response","177","203400","0.0-4.0-1.43","null","<p style='position: absolute; top: 40%;left: 20%'><img src='img/s1.jpeg' width='200px'/></p> <p style='position: absolute; top: 40%;right: 20%'><img src='img/s2s.jpeg' width='200px'/></p>","null","","","","","",""
"html-keyboard-response","178","204402","0.0-4.0-2.43","null","<p style='position: absolute; top: 40%;left: 20%'><img src='img/s1.jpeg' width='200px'/></p> <p style='position: absolute; top: 40%;right: 20%'><img src='img/s2s.jpeg' width='200px'/></p> <p style='position: absolute; top: 40%;right: 45%'><img src='img/reward.jpeg' width='200px'/></p>","null","","","","","",""
"html-keyboard-response","179","205077","0.0-4.0-3.43","null","<p style=""font-size: 48px"">+</p>","null","","","","","",""
"html-button-response","180","206440","0.0-4.0-0.44","1362.6299999959883","","","","1","2","1","0","0"
"html-keyboard-response","181","206941","0.0-4.0-1.44","null","<p style='position: absolute; top: 40%;right: 20%'><img src='img/s1.jpeg' width='200px'/></p> <p style='position: absolute; top: 40%;left: 20%'><img src='img/s2s.jpeg' width='200px'/></p>","null","","","","","",""
"html-keyboard-response","182","207944","0.0-4.0-2.44","null","<p style='position: absolute; top: 40%;right: 20%'><img src='img/s1.jpeg' width='200px'/></p> <p style='position: absolute; top: 40%;left: 20%'><img src='img/s2s.jpeg' width='200px'/></p> <p style='position: absolute; top: 40%;right: 45%'><img src='img/reward.jpeg' width='200px'/></p>","null","","","","","",""
"html-keyboard-response","183","209140","0.0-4.0-3.44","null","<p style=""font-size: 48px"">+</p>","null","","","","","",""
"html-button-response","184","209834","0.0-4.0-0.45","693.0750000028638","","","","1","2","1","0","1"
"html-keyboard-response","185","210337","0.0-4.0-1.45","null","<p style='position: absolute; top: 40%;right: 20%'><img src='img/s1.jpeg' width='200px'/></p> <p style='position: absolute; top: 40%;left: 20%'><img src='img/s2s.jpeg' width='200px'/></p>","null","","","","","",""
"html-keyboard-response","186","211340","0.0-4.0-2.45","null","<p style='position: absolute; top: 40%;right: 20%'><img src='img/s1.jpeg' width='200px'/></p> <p style='position: absolute; top: 40%;left: 20%'><img src='img/s2s.jpeg' width='200px'/></p> <p style='position: absolute; top: 40%;right: 45%'><img src='img/punishment.jpeg' width='200px'/></p>","null","","","","","",""
"html-keyboard-response","187","211994","0.0-4.0-3.45","null","<p style=""font-size: 48px"">+</p>","null","","","","","",""
"html-button-response","188","212783","0.0-4.0-0.46","787.2200000056182","","","","1","2","1","1","0"
"html-keyboard-response","189","213285","0.0-4.0-1.46","null","<p style='position: absolute; top: 40%;right: 20%'><img src='img/s1.jpeg' width='200px'/></p> <p style='position: absolute; top: 40%;left: 20%'><img src='img/s2s.jpeg' width='200px'/></p>","null","","","","","",""
"html-keyboard-response","190","214290","0.0-4.0-2.46","null","<p style='position: absolute; top: 40%;right: 20%'><img src='img/s1.jpeg' width='200px'/></p> <p style='position: absolute; top: 40%;left: 20%'><img src='img/s2s.jpeg' width='200px'/></p> <p style='position: absolute; top: 40%;right: 45%'><img src='img/reward.jpeg' width='200px'/></p>","null","","","","","",""
"html-keyboard-response","191","215276","0.0-4.0-3.46","null","<p style=""font-size: 48px"">+</p>","null","","","","","",""
"html-button-response","192","216780","0.0-4.0-0.47","1503.4100000048056","","","","1","1","2","0","1"
"html-keyboard-response","193","217282","0.0-4.0-1.47","null","<p style='position: absolute; top: 40%;left: 20%'><img src='img/s1.jpeg' width='200px'/></p> <p style='position: absolute; top: 40%;right: 20%'><img src='img/s2s.jpeg' width='200px'/></p>","null","","","","","",""
"html-keyboard-response","194","218283","0.0-4.0-2.47","null","<p style='position: absolute; top: 40%;left: 20%'><img src='img/s1.jpeg' width='200px'/></p> <p style='position: absolute; top: 40%;right: 20%'><img src='img/s2s.jpeg' width='200px'/></p> <p style='position: absolute; top: 40%;right: 45%'><img src='img/reward.jpeg' width='200px'/></p>","null","","","","","",""
"html-keyboard-response","195","219228","0.0-4.0-3.47","null","<p style=""font-size: 48px"">+</p>","null","","","","","",""
"html-button-response","196","220397","0.0-4.0-0.48","1167.7600000039092","","","","1","2","1","0","1"
"html-keyboard-response","197","220898","0.0-4.0-1.48","null","<p style='position: absolute; top: 40%;right: 20%'><img src='img/s1.jpeg' width='200px'/></p> <p style='position: absolute; top: 40%;left: 20%'><img src='img/s2s.jpeg' width='200px'/></p>","null","","","","","",""
"html-keyboard-response","198","221901","0.0-4.0-2.48","null","<p style='position: absolute; top: 40%;right: 20%'><img src='img/s1.jpeg' width='200px'/></p> <p style='position: absolute; top: 40%;left: 20%'><img src='img/s2s.jpeg' width='200px'/></p> <p style='position: absolute; top: 40%;right: 45%'><img src='img/punishment.jpeg' width='200px'/></p>","null","","","","","",""
"html-keyboard-response","199","222480","0.0-4.0-3.48","null","<p style=""font-size: 48px"">+</p>","null","","","","","",""
"html-button-response","200","223724","0.0-4.0-0.49","1243.6600000000908","","","","1","1","2","0","1"
"html-keyboard-response","201","224227","0.0-4.0-1.49","null","<p style='position: absolute; top: 40%;left: 20%'><img src='img/s1.jpeg' width='200px'/></p> <p style='position: absolute; top: 40%;right: 20%'><img src='img/s2s.jpeg' width='200px'/></p>","null","","","","","",""
"html-keyboard-response","202","225231","0.0-4.0-2.49","null","<p style='position: absolute; top: 40%;left: 20%'><img src='img/s1.jpeg' width='200px'/></p> <p style='position: absolute; top: 40%;right: 20%'><img src='img/s2s.jpeg' width='200px'/></p> <p style='position: absolute; top: 40%;right: 45%'><img src='img/reward.jpeg' width='200px'/></p>","null","","","","","",""
"html-keyboard-response","203","226148","0.0-4.0-3.49","null","<p style=""font-size: 48px"">+</p>","null","","","","","",""
"html-button-response","204","227184","0.0-4.0-0.50","1034.6899999931338","","","","1","2","1","0","0"
"html-keyboard-response","205","227687","0.0-4.0-1.50","null","<p style='position: absolute; top: 40%;right: 20%'><img src='img/s1.jpeg' width='200px'/></p> <p style='position: absolute; top: 40%;left: 20%'><img src='img/s2s.jpeg' width='200px'/></p>","null","","","","","",""
"html-keyboard-response","206","228690","0.0-4.0-2.50","null","<p style='position: absolute; top: 40%;right: 20%'><img src='img/s1.jpeg' width='200px'/></p> <p style='position: absolute; top: 40%;left: 20%'><img src='img/s2s.jpeg' width='200px'/></p> <p style='position: absolute; top: 40%;right: 45%'><img src='img/reward.jpeg' width='200px'/></p>","null","","","","","",""
"html-keyboard-response","207","230176","0.0-4.0-3.50","null","<p style=""font-size: 48px"">+</p>","null","","","","","",""
"html-button-response","208","231577","0.0-4.0-0.51","1399.2050000015297","","","","1","1","2","1","1"
"html-keyboard-response","209","232080","0.0-4.0-1.51","null","<p style='position: absolute; top: 40%;left: 20%'><img src='img/s1.jpeg' width='200px'/></p> <p style='position: absolute; top: 40%;right: 20%'><img src='img/s2s.jpeg' width='200px'/></p>","null","","","","","",""
"html-keyboard-response","210","233085","0.0-4.0-2.51","null","<p style='position: absolute; top: 40%;left: 20%'><img src='img/s1.jpeg' width='200px'/></p> <p style='position: absolute; top: 40%;right: 20%'><img src='img/s2s.jpeg' width='200px'/></p> <p style='position: absolute; top: 40%;right: 45%'><img src='img/reward.jpeg' width='200px'/></p>","null","","","","","",""
"html-keyboard-response","211","233664","0.0-4.0-3.51","null","<p style=""font-size: 48px"">+</p>","null","","","","","",""
"html-button-response","212","234218","0.0-4.0-0.52","553.5299999974086","","","","1","1","2","0","1"
"html-keyboard-response","213","234722","0.0-4.0-1.52","null","<p style='position: absolute; top: 40%;left: 20%'><img src='img/s1.jpeg' width='200px'/></p> <p style='position: absolute; top: 40%;right: 20%'><img src='img/s2s.jpeg' width='200px'/></p>","null","","","","","",""
"html-keyboard-response","214","235726","0.0-4.0-2.52","null","<p style='position: absolute; top: 40%;left: 20%'><img src='img/s1.jpeg' width='200px'/></p> <p style='position: absolute; top: 40%;right: 20%'><img src='img/s2s.jpeg' width='200px'/></p> <p style='position: absolute; top: 40%;right: 45%'><img src='img/reward.jpeg' width='200px'/></p>","null","","","","","",""
"html-keyboard-response","215","236916","0.0-4.0-3.52","null","<p style=""font-size: 48px"">+</p>","null","","","","","",""
"html-button-response","216","237808","0.0-4.0-0.53","891.0800000012387","","","","1","1","2","1","1"
"html-keyboard-response","217","238310","0.0-4.0-1.53","null","<p style='position: absolute; top: 40%;left: 20%'><img src='img/s1.jpeg' width='200px'/></p> <p style='position: absolute; top: 40%;right: 20%'><img src='img/s2s.jpeg' width='200px'/></p>","null","","","","","",""
"html-keyboard-response","218","239314","0.0-4.0-2.53","null","<p style='position: absolute; top: 40%;left: 20%'><img src='img/s1.jpeg' width='200px'/></p> <p style='position: absolute; top: 40%;right: 20%'><img src='img/s2s.jpeg' width='200px'/></p> <p style='position: absolute; top: 40%;right: 45%'><img src='img/reward.jpeg' width='200px'/></p>","null","","","","","",""
"html-keyboard-response","219","239911","0.0-4.0-3.53","null","<p style=""font-size: 48px"">+</p>","null","","","","","",""
"html-button-response","220","240896","0.0-4.0-0.54","983.990000000631","","","","1","2","1","0","1"
"html-keyboard-response","221","241397","0.0-4.0-1.54","null","<p style='position: absolute; top: 40%;right: 20%'><img src='img/s1.jpeg' width='200px'/></p> <p style='position: absolute; top: 40%;left: 20%'><img src='img/s2s.jpeg' width='200px'/></p>","null","","","","","",""
"html-keyboard-response","222","242399","0.0-4.0-2.54","null","<p style='position: absolute; top: 40%;right: 20%'><img src='img/s1.jpeg' width='200px'/></p> <p style='position: absolute; top: 40%;left: 20%'><img src='img/s2s.jpeg' width='200px'/></p> <p style='position: absolute; top: 40%;right: 45%'><img src='img/punishment.jpeg' width='200px'/></p>","null","","","","","",""
"html-keyboard-response","223","243377","0.0-4.0-3.54","null","<p style=""font-size: 48px"">+</p>","null","","","","","",""
"html-button-response","224","244262","0.0-4.0-0.55","884.9000000045635","","","","1","2","1","0","1"
"html-keyboard-response","225","244764","0.0-4.0-1.55","null","<p style='position: absolute; top: 40%;right: 20%'><img src='img/s1.jpeg' width='200px'/></p> <p style='position: absolute; top: 40%;left: 20%'><img src='img/s2s.jpeg' width='200px'/></p>","null","","","","","",""
"html-keyboard-response","226","245769","0.0-4.0-2.55","null","<p style='position: absolute; top: 40%;right: 20%'><img src='img/s1.jpeg' width='200px'/></p> <p style='position: absolute; top: 40%;left: 20%'><img src='img/s2s.jpeg' width='200px'/></p> <p style='position: absolute; top: 40%;right: 45%'><img src='img/punishment.jpeg' width='200px'/></p>","null","","","","","",""
"html-keyboard-response","227","246723","0.0-4.0-3.55","null","<p style=""font-size: 48px"">+</p>","null","","","","","",""
"html-button-response","228","247894","0.0-4.0-0.56","1170.0049999999464","","","","1","2","1","0","1"
"html-keyboard-response","229","248397","0.0-4.0-1.56","null","<p style='position: absolute; top: 40%;right: 20%'><img src='img/s1.jpeg' width='200px'/></p> <p style='position: absolute; top: 40%;left: 20%'><img src='img/s2s.jpeg' width='200px'/></p>","null","","","","","",""
"html-keyboard-response","230","249401","0.0-4.0-2.56","null","<p style='position: absolute; top: 40%;right: 20%'><img src='img/s1.jpeg' width='200px'/></p> <p style='position: absolute; top: 40%;left: 20%'><img src='img/s2s.jpeg' width='200px'/></p> <p style='position: absolute; top: 40%;right: 45%'><img src='img/punishment.jpeg' width='200px'/></p>","null","","","","","",""
"html-keyboard-response","231","250726","0.0-4.0-3.56","null","<p style=""font-size: 48px"">+</p>","null","","","","","",""
"html-button-response","232","251824","0.0-4.0-0.57","1096.834999996645","","","","1","1","2","0","0"
"html-keyboard-response","233","252326","0.0-4.0-1.57","null","<p style='position: absolute; top: 40%;left: 20%'><img src='img/s1.jpeg' width='200px'/></p> <p style='position: absolute; top: 40%;right: 20%'><img src='img/s2s.jpeg' width='200px'/></p>","null","","","","","",""
"html-keyboard-response","234","253327","0.0-4.0-2.57","null","<p style='position: absolute; top: 40%;left: 20%'><img src='img/s1.jpeg' width='200px'/></p> <p style='position: absolute; top: 40%;right: 20%'><img src='img/s2s.jpeg' width='200px'/></p> <p style='position: absolute; top: 40%;right: 45%'><img src='img/punishment.jpeg' width='200px'/></p>","null","","","","","",""
"html-keyboard-response","235","254513","0.0-4.0-3.57","null","<p style=""font-size: 48px"">+</p>","null","","","","","",""
"html-button-response","236","255540","0.0-4.0-0.58","1026.0350000025937","","","","1","1","2","0","1"
"html-keyboard-response","237","256045","0.0-4.0-1.58","null","<p style='position: absolute; top: 40%;left: 20%'><img src='img/s1.jpeg' width='200px'/></p> <p style='position: absolute; top: 40%;right: 20%'><img src='img/s2s.jpeg' width='200px'/></p>","null","","","","","",""
"html-keyboard-response","238","257048","0.0-4.0-2.58","null","<p style='position: absolute; top: 40%;left: 20%'><img src='img/s1.jpeg' width='200px'/></p> <p style='position: absolute; top: 40%;right: 20%'><img src='img/s2s.jpeg' width='200px'/></p> <p style='position: absolute; top: 40%;right: 45%'><img src='img/reward.jpeg' width='200px'/></p>","null","","","","","",""
"html-keyboard-response","239","257666","0.0-4.0-3.58","null","<p style=""font-size: 48px"">+</p>","null","","","","","",""
"html-button-response","240","258914","0.0-4.0-0.59","1247.4099999963073","","","","1","2","1","0","1"
"html-keyboard-response","241","259417","0.0-4.0-1.59","null","<p style='position: absolute; top: 40%;right: 20%'><img src='img/s1.jpeg' width='200px'/></p> <p style='position: absolute; top: 40%;left: 20%'><img src='img/s2s.jpeg' width='200px'/></p>","null","","","","","",""
"html-keyboard-response","242","260421","0.0-4.0-2.59","null","<p style='position: absolute; top: 40%;right: 20%'><img src='img/s1.jpeg' width='200px'/></p> <p style='position: absolute; top: 40%;left: 20%'><img src='img/s2s.jpeg' width='200px'/></p> <p style='position: absolute; top: 40%;right: 45%'><img src='img/punishment.jpeg' width='200px'/></p>","null","","","","","",""
"html-keyboard-response","243","261375","0.0-4.0-3.59","null","<p style=""font-size: 48px"">+</p>","null","","","","","",""
"html-button-response","244","262289","0.0-4.0-0.60","913.3900000015274","","","","1","2","1","1","1"
"html-keyboard-response","245","262794","0.0-4.0-1.60","null","<p style='position: absolute; top: 40%;right: 20%'><img src='img/s1.jpeg' width='200px'/></p> <p style='position: absolute; top: 40%;left: 20%'><img src='img/s2s.jpeg' width='200px'/></p>","null","","","","","",""
"html-keyboard-response","246","263797","0.0-4.0-2.60","null","<p style='position: absolute; top: 40%;right: 20%'><img src='img/s1.jpeg' width='200px'/></p> <p style='position: absolute; top: 40%;left: 20%'><img src='img/s2s.jpeg' width='200px'/></p> <p style='position: absolute; top: 40%;right: 45%'><img src='img/punishment.jpeg' width='200px'/></p>","null","","","","","",""
"html-keyboard-response","247","264408","0.0-4.0-3.60","null","<p style=""font-size: 48px"">+</p>","null","","","","","",""
"html-button-response","248","265615","0.0-4.0-0.61","1205.7300000014948","","","","0","1","2","1","1"
"html-keyboard-response","249","266117","0.0-4.0-1.61","null","<p style='position: absolute; top: 40%;left: 20%'><img src='img/s1s.jpeg' width='200px'/></p> <p style='position: absolute; top: 40%;right: 20%'><img src='img/s2.jpeg' width='200px'/></p>","null","","","","","",""
"html-keyboard-response","250","267121","0.0-4.0-2.61","null","<p style='position: absolute; top: 40%;left: 20%'><img src='img/s1s.jpeg' width='200px'/></p> <p style='position: absolute; top: 40%;right: 20%'><img src='img/s2.jpeg' width='200px'/></p> <p style='position: absolute; top: 40%;right: 45%'><img src='img/reward.jpeg' width='200px'/></p>","null","","","","","",""
"html-keyboard-response","251","267958","0.0-4.0-3.61","null","<p style=""font-size: 48px"">+</p>","null","","","","","",""
"html-button-response","252","268746","0.0-4.0-0.62","786.8300000045565","","","","0","2","1","0","1"
"html-keyboard-response","253","269248","0.0-4.0-1.62","null","<p style='position: absolute; top: 40%;right: 20%'><img src='img/s1s.jpeg' width='200px'/></p> <p style='position: absolute; top: 40%;left: 20%'><img src='img/s2.jpeg' width='200px'/></p>","null","","","","","",""
"html-keyboard-response","254","270252","0.0-4.0-2.62","null","<p style='position: absolute; top: 40%;right: 20%'><img src='img/s1s.jpeg' width='200px'/></p> <p style='position: absolute; top: 40%;left: 20%'><img src='img/s2.jpeg' width='200px'/></p> <p style='position: absolute; top: 40%;right: 45%'><img src='img/punishment.jpeg' width='200px'/></p>","null","","","","","",""
"html-keyboard-response","255","271309","0.0-4.0-3.62","null","<p style=""font-size: 48px"">+</p>","null","","","","","",""
"html-button-response","256","272262","0.0-4.0-0.63","952.4900000033085","","","","0","1","2","0","1"
"html-keyboard-response","257","272766","0.0-4.0-1.63","null","<p style='position: absolute; top: 40%;left: 20%'><img src='img/s1s.jpeg' width='200px'/></p> <p style='position: absolute; top: 40%;right: 20%'><img src='img/s2.jpeg' width='200px'/></p>","null","","","","","",""
"html-keyboard-response","258","273770","0.0-4.0-2.63","null","<p style='position: absolute; top: 40%;left: 20%'><img src='img/s1s.jpeg' width='200px'/></p> <p style='position: absolute; top: 40%;right: 20%'><img src='img/s2.jpeg' width='200px'/></p> <p style='position: absolute; top: 40%;right: 45%'><img src='img/punishment.jpeg' width='200px'/></p>","null","","","","","",""
"html-keyboard-response","259","274656","0.0-4.0-3.63","null","<p style=""font-size: 48px"">+</p>","null","","","","","",""
"html-button-response","260","275812","0.0-4.0-0.64","1155.5999999982305","","","","1","1","2","0","0"
"html-keyboard-response","261","276316","0.0-4.0-1.64","null","<p style='position: absolute; top: 40%;left: 20%'><img src='img/s1.jpeg' width='200px'/></p> <p style='position: absolute; top: 40%;right: 20%'><img src='img/s2s.jpeg' width='200px'/></p>","null","","","","","",""
"html-keyboard-response","262","277323","0.0-4.0-2.64","null","<p style='position: absolute; top: 40%;left: 20%'><img src='img/s1.jpeg' width='200px'/></p> <p style='position: absolute; top: 40%;right: 20%'><img src='img/s2s.jpeg' width='200px'/></p> <p style='position: absolute; top: 40%;right: 45%'><img src='img/punishment.jpeg' width='200px'/></p>","null","","","","","",""
"html-keyboard-response","263","278184","0.0-4.0-3.64","null","<p style=""font-size: 48px"">+</p>","null","","","","","",""
"html-button-response","264","279170","0.0-4.0-0.65","985.1199999975506","","","","1","1","2","0","1"
"html-keyboard-response","265","279674","0.0-4.0-1.65","null","<p style='position: absolute; top: 40%;left: 20%'><img src='img/s1.jpeg' width='200px'/></p> <p style='position: absolute; top: 40%;right: 20%'><img src='img/s2s.jpeg' width='200px'/></p>","null","","","","","",""
"html-keyboard-response","266","280677","0.0-4.0-2.65","null","<p style='position: absolute; top: 40%;left: 20%'><img src='img/s1.jpeg' width='200px'/></p> <p style='position: absolute; top: 40%;right: 20%'><img src='img/s2s.jpeg' width='200px'/></p> <p style='position: absolute; top: 40%;right: 45%'><img src='img/reward.jpeg' width='200px'/></p>","null","","","","","",""
"html-keyboard-response","267","281192","0.0-4.0-3.65","null","<p style=""font-size: 48px"">+</p>","null","","","","","",""
"html-button-response","268","282143","0.0-4.0-0.66","949.4899999990594","","","","1","2","1","0","1"
"html-keyboard-response","269","282647","0.0-4.0-1.66","null","<p style='position: absolute; top: 40%;right: 20%'><img src='img/s1.jpeg' width='200px'/></p> <p style='position: absolute; top: 40%;left: 20%'><img src='img/s2s.jpeg' width='200px'/></p>","null","","","","","",""
"html-keyboard-response","270","283648","0.0-4.0-2.66","null","<p style='position: absolute; top: 40%;right: 20%'><img src='img/s1.jpeg' width='200px'/></p> <p style='position: absolute; top: 40%;left: 20%'><img src='img/s2s.jpeg' width='200px'/></p> <p style='position: absolute; top: 40%;right: 45%'><img src='img/punishment.jpeg' width='200px'/></p>","null","","","","","",""
"html-keyboard-response","271","285145","0.0-4.0-3.66","null","<p style=""font-size: 48px"">+</p>","null","","","","","",""
"html-button-response","272","286157","0.0-4.0-0.67","1010.7500000012806","","","","1","2","1","0","1"
"html-keyboard-response","273","286660","0.0-4.0-1.67","null","<p style='position: absolute; top: 40%;right: 20%'><img src='img/s1.jpeg' width='200px'/></p> <p style='position: absolute; top: 40%;left: 20%'><img src='img/s2s.jpeg' width='200px'/></p>","null","","","","","",""
"html-keyboard-response","274","287666","0.0-4.0-2.67","null","<p style='position: absolute; top: 40%;right: 20%'><img src='img/s1.jpeg' width='200px'/></p> <p style='position: absolute; top: 40%;left: 20%'><img src='img/s2s.jpeg' width='200px'/></p> <p style='position: absolute; top: 40%;right: 45%'><img src='img/punishment.jpeg' width='200px'/></p>","null","","","","","",""
"html-keyboard-response","275","288628","0.0-4.0-3.67","null","<p style=""font-size: 48px"">+</p>","null","","","","","",""
"html-button-response","276","289367","0.0-4.0-0.68","737.3799999986659","","","","0","2","1","0","1"
"html-keyboard-response","277","289872","0.0-4.0-1.68","null","<p style='position: absolute; top: 40%;right: 20%'><img src='img/s1s.jpeg' width='200px'/></p> <p style='position: absolute; top: 40%;left: 20%'><img src='img/s2.jpeg' width='200px'/></p>","null","","","","","",""
"html-keyboard-response","278","290877","0.0-4.0-2.68","null","<p style='position: absolute; top: 40%;right: 20%'><img src='img/s1s.jpeg' width='200px'/></p> <p style='position: absolute; top: 40%;left: 20%'><img src='img/s2.jpeg' width='200px'/></p> <p style='position: absolute; top: 40%;right: 45%'><img src='img/punishment.jpeg' width='200px'/></p>","null","","","","","",""
"html-keyboard-response","279","291590","0.0-4.0-3.68","null","<p style=""font-size: 48px"">+</p>","null","","","","","",""
"html-button-response","280","292674","0.0-4.0-0.69","1083.3249999996042","","","","0","1","2","0","0"
"html-keyboard-response","281","293175","0.0-4.0-1.69","null","<p style='position: absolute; top: 40%;left: 20%'><img src='img/s1s.jpeg' width='200px'/></p> <p style='position: absolute; top: 40%;right: 20%'><img src='img/s2.jpeg' width='200px'/></p>","null","","","","","",""
"html-keyboard-response","282","294180","0.0-4.0-2.69","null","<p style='position: absolute; top: 40%;left: 20%'><img src='img/s1s.jpeg' width='200px'/></p> <p style='position: absolute; top: 40%;right: 20%'><img src='img/s2.jpeg' width='200px'/></p> <p style='position: absolute; top: 40%;right: 45%'><img src='img/punishment.jpeg' width='200px'/></p>","null","","","","","",""
"html-keyboard-response","283","295383","0.0-4.0-3.69","null","<p style=""font-size: 48px"">+</p>","null","","","","","",""
"html-button-response","284","296557","0.0-4.0-0.70","1172.4449999965145","","","","1","1","2","0","1"
"html-keyboard-response","285","297059","0.0-4.0-1.70","null","<p style='position: absolute; top: 40%;left: 20%'><img src='img/s1.jpeg' width='200px'/></p> <p style='position: absolute; top: 40%;right: 20%'><img src='img/s2s.jpeg' width='200px'/></p>","null","","","","","",""
"html-keyboard-response","286","298061","0.0-4.0-2.70","null","<p style='position: absolute; top: 40%;left: 20%'><img src='img/s1.jpeg' width='200px'/></p> <p style='position: absolute; top: 40%;right: 20%'><img src='img/s2s.jpeg' width='200px'/></p> <p style='position: absolute; top: 40%;right: 45%'><img src='img/reward.jpeg' width='200px'/></p>","null","","","","","",""
"html-keyboard-response","287","298612","0.0-4.0-3.70","null","<p style=""font-size: 48px"">+</p>","null","","","","","",""
"html-button-response","288","299207","0.0-4.0-0.71","593.2600000014645","","","","1","1","2","0","1"
"html-keyboard-response","289","299711","0.0-4.0-1.71","null","<p style='position: absolute; top: 40%;left: 20%'><img src='img/s1.jpeg' width='200px'/></p> <p style='position: absolute; top: 40%;right: 20%'><img src='img/s2s.jpeg' width='200px'/></p>","null","","","","","",""
"html-keyboard-response","290","300712","0.0-4.0-2.71","null","<p style='position: absolute; top: 40%;left: 20%'><img src='img/s1.jpeg' width='200px'/></p> <p style='position: absolute; top: 40%;right: 20%'><img src='img/s2s.jpeg' width='200px'/></p> <p style='position: absolute; top: 40%;right: 45%'><img src='img/reward.jpeg' width='200px'/></p>","null","","","","","",""
"html-keyboard-response","291","301314","0.0-4.0-3.71","null","<p style=""font-size: 48px"">+</p>","null","","","","","",""
"html-button-response","292","302283","0.0-4.0-0.72","968.2800000009593","","","","1","2","1","0","1"
"html-keyboard-response","293","302785","0.0-4.0-1.72","null","<p style='position: absolute; top: 40%;right: 20%'><img src='img/s1.jpeg' width='200px'/></p> <p style='position: absolute; top: 40%;left: 20%'><img src='img/s2s.jpeg' width='200px'/></p>","null","","","","","",""
"html-keyboard-response","294","303788","0.0-4.0-2.72","null","<p style='position: absolute; top: 40%;right: 20%'><img src='img/s1.jpeg' width='200px'/></p> <p style='position: absolute; top: 40%;left: 20%'><img src='img/s2s.jpeg' width='200px'/></p> <p style='position: absolute; top: 40%;right: 45%'><img src='img/punishment.jpeg' width='200px'/></p>","null","","","","","",""
"html-keyboard-response","295","305140","0.0-4.0-3.72","null","<p style=""font-size: 48px"">+</p>","null","","","","","",""
"html-button-response","296","306208","0.0-4.0-0.73","1067.685000001802","","","","1","2","1","0","1"
"html-keyboard-response","297","306712","0.0-4.0-1.73","null","<p style='position: absolute; top: 40%;right: 20%'><img src='img/s1.jpeg' width='200px'/></p> <p style='position: absolute; top: 40%;left: 20%'><img src='img/s2s.jpeg' width='200px'/></p>","null","","","","","",""
"html-keyboard-response","298","307716","0.0-4.0-2.73","null","<p style='position: absolute; top: 40%;right: 20%'><img src='img/s1.jpeg' width='200px'/></p> <p style='position: absolute; top: 40%;left: 20%'><img src='img/s2s.jpeg' width='200px'/></p> <p style='position: absolute; top: 40%;right: 45%'><img src='img/punishment.jpeg' width='200px'/></p>","null","","","","","",""
"html-keyboard-response","299","308488","0.0-4.0-3.73","null","<p style=""font-size: 48px"">+</p>","null","","","","","",""
"html-button-response","300","309340","0.0-4.0-0.74","851.2849999970058","","","","0","2","1","0","0"
"html-keyboard-response","301","309846","0.0-4.0-1.74","null","<p style='position: absolute; top: 40%;right: 20%'><img src='img/s1s.jpeg' width='200px'/></p> <p style='position: absolute; top: 40%;left: 20%'><img src='img/s2.jpeg' width='200px'/></p>","null","","","","","",""
"html-keyboard-response","302","310850","0.0-4.0-2.74","null","<p style='position: absolute; top: 40%;right: 20%'><img src='img/s1s.jpeg' width='200px'/></p> <p style='position: absolute; top: 40%;left: 20%'><img src='img/s2.jpeg' width='200px'/></p> <p style='position: absolute; top: 40%;right: 45%'><img src='img/punishment.jpeg' width='200px'/></p>","null","","","","","",""
"html-keyboard-response","303","311727","0.0-4.0-3.74","null","<p style=""font-size: 48px"">+</p>","null","","","","","",""
"html-button-response","304","312215","0.0-4.0-0.75","486.4250000027823","","","","0","2","1","1","1"
"html-keyboard-response","305","312719","0.0-4.0-1.75","null","<p style='position: absolute; top: 40%;right: 20%'><img src='img/s1s.jpeg' width='200px'/></p> <p style='position: absolute; top: 40%;left: 20%'><img src='img/s2.jpeg' width='200px'/></p>","null","","","","","",""
"html-keyboard-response","306","313724","0.0-4.0-2.75","null","<p style='position: absolute; top: 40%;right: 20%'><img src='img/s1s.jpeg' width='200px'/></p> <p style='position: absolute; top: 40%;left: 20%'><img src='img/s2.jpeg' width='200px'/></p> <p style='position: absolute; top: 40%;right: 45%'><img src='img/reward.jpeg' width='200px'/></p>","null","","","","","",""
"html-keyboard-response","307","314380","0.0-4.0-3.75","null","<p style=""font-size: 48px"">+</p>","null","","","","","",""
"html-button-response","308","314845","0.0-4.0-0.76","464.1150000024936","","","","0","2","1","0","1"
"html-keyboard-response","309","315349","0.0-4.0-1.76","null","<p style='position: absolute; top: 40%;right: 20%'><img src='img/s1s.jpeg' width='200px'/></p> <p style='position: absolute; top: 40%;left: 20%'><img src='img/s2.jpeg' width='200px'/></p>","null","","","","","",""
"html-keyboard-response","310","316353","0.0-4.0-2.76","null","<p style='position: absolute; top: 40%;right: 20%'><img src='img/s1s.jpeg' width='200px'/></p> <p style='position: absolute; top: 40%;left: 20%'><img src='img/s2.jpeg' width='200px'/></p> <p style='position: absolute; top: 40%;right: 45%'><img src='img/punishment.jpeg' width='200px'/></p>","null","","","","","",""
"html-keyboard-response","311","317092","0.0-4.0-3.76","null","<p style=""font-size: 48px"">+</p>","null","","","","","",""
"html-button-response","312","318095","0.0-4.0-0.77","1001.5399999974761","","","","0","1","2","0","0"
"html-keyboard-response","313","318599","0.0-4.0-1.77","null","<p style='position: absolute; top: 40%;left: 20%'><img src='img/s1s.jpeg' width='200px'/></p> <p style='position: absolute; top: 40%;right: 20%'><img src='img/s2.jpeg' width='200px'/></p>","null","","","","","",""
"html-keyboard-response","314","319601","0.0-4.0-2.77","null","<p style='position: absolute; top: 40%;left: 20%'><img src='img/s1s.jpeg' width='200px'/></p> <p style='position: absolute; top: 40%;right: 20%'><img src='img/s2.jpeg' width='200px'/></p> <p style='position: absolute; top: 40%;right: 45%'><img src='img/punishment.jpeg' width='200px'/></p>","null","","","","","",""
"html-keyboard-response","315","320928","0.0-4.0-3.77","null","<p style=""font-size: 48px"">+</p>","null","","","","","",""
"html-button-response","316","321405","0.0-4.0-0.78","475.9649999978137","","","","1","1","2","0","1"
"html-keyboard-response","317","321909","0.0-4.0-1.78","null","<p style='position: absolute; top: 40%;left: 20%'><img src='img/s1.jpeg' width='200px'/></p> <p style='position: absolute; top: 40%;right: 20%'><img src='img/s2s.jpeg' width='200px'/></p>","null","","","","","",""
"html-keyboard-response","318","322912","0.0-4.0-2.78","null","<p style='position: absolute; top: 40%;left: 20%'><img src='img/s1.jpeg' width='200px'/></p> <p style='position: absolute; top: 40%;right: 20%'><img src='img/s2s.jpeg' width='200px'/></p> <p style='position: absolute; top: 40%;right: 45%'><img src='img/reward.jpeg' width='200px'/></p>","null","","","","","",""
"html-keyboard-response","319","324083","0.0-4.0-3.78","null","<p style=""font-size: 48px"">+</p>","null","","","","","",""
"html-button-response","320","324867","0.0-4.0-0.79","782.3250000001281","","","","1","1","2","1","1"
"html-keyboard-response","321","325368","0.0-4.0-1.79","null","<p style='position: absolute; top: 40%;left: 20%'><img src='img/s1.jpeg' width='200px'/></p> <p style='position: absolute; top: 40%;right: 20%'><img src='img/s2s.jpeg' width='200px'/></p>","null","","","","","",""
"html-keyboard-response","322","326372","0.0-4.0-2.79","null","<p style='position: absolute; top: 40%;left: 20%'><img src='img/s1.jpeg' width='200px'/></p> <p style='position: absolute; top: 40%;right: 20%'><img src='img/s2s.jpeg' width='200px'/></p> <p style='position: absolute; top: 40%;right: 45%'><img src='img/reward.jpeg' width='200px'/></p>","null","","","","","",""
"html-keyboard-response","323","327235","0.0-4.0-3.79","null","<p style=""font-size: 48px"">+</p>","null","","","","","",""
